"success","timeout","failed_images","failed_audio","failed_video","trial_type","trial_index","time_elapsed","internal_node_id","view_history","rt","stimulus","response","firstImageNumber","secondImageNumber","response_made","stimulus_type"
"true","false","[]","[]","[]","preload","0","1508","0.0-0.0","","","","","","","",""
"","","","","","instructions","1","16177","0.0-1.0","[{""page_index"":0,""viewing_time"":14668}]","14669","","","","","",""
"","","","","","html-button-response","2","56632","0.0-2.0","","40455","
        <div style=""display: flex; justify-content: center; align-items: center;"">
          <div style=""text-align: center; margin-right: 20px;"">
            <p style=""font-size: 24px; font-weight: bold;"">Event 1<p>
            <img src=""images/instructions/1.png"" style=""width: 300px; height: auto;"">
          </div>
          <div style=""text-align: center; margin-left: 20px;"">
            <p style=""font-size: 24px; font-weight: bold;"">Event 2</p>
            <img src=""images/instructions/2.png"" style=""width: 300px; height: auto;"">
          </div>
        </div>
        <p style=""text-align: center; margin-top: 20px;"">Did one event cause the other?</p>","0","","","",""
"","","","","","html-button-response","3","57606","0.0-3.0","","973","
        <div style=""display: flex; justify-content: center; align-items: center;"">
          <div style=""text-align: center; margin-right: 20px;"">
            <p style=""font-size: 24px; font-weight: bold;"">Event 1<p>
            <img src=""images/instructions/1.png"" style=""width: 300px; height: auto;"">
          </div>
          <div style=""text-align: center; margin-left: 20px;"">
            <p style=""font-size: 24px; font-weight: bold;"">Event 2</p>
            <img src=""images/instructions/2.png"" style=""width: 300px; height: auto;"">
          </div>
        </div>
        <h2>Correct Answer</h2>
        <p>The correct answer is: <strong>event 1 causes event 2</strong>.</p>
        <p>Click ""Next"" to proceed to the next example.</p>","0","","","",""
"","","","","","html-button-response","4","64804","0.0-4.0","","7197","
   <div style=""display: flex; justify-content: center; align-items: center;"">
          <div style=""text-align: center; margin-right: 20px;"">
            <p style=""font-size: 24px; font-weight: bold;"">Event 1<p>
            <img src=""images/instructions/2.png"" style=""width: 300px; height: auto;"">
          </div>
          <div style=""text-align: center; margin-left: 20px;"">
            <p style=""font-size: 24px; font-weight: bold;"">Event 2</p>
            <img src=""images/instructions/1.png"" style=""width: 300px; height: auto;"">
          </div>
        </div>
        <p style=""text-align: center; margin-top: 20px;"">Did one event cause the other?</p>","1","","","",""
"","","","","","html-button-response","5","65737","0.0-5.0","","933","
        <div style=""display: flex; justify-content: center; align-items: center;"">
          <div style=""text-align: center; margin-right: 20px;"">
            <p style=""font-size: 24px; font-weight: bold;"">Event 1<p>
            <img src=""images/instructions/2.png"" style=""width: 300px; height: auto;"">
          </div>
          <div style=""text-align: center; margin-left: 20px;"">
            <p style=""font-size: 24px; font-weight: bold;"">Event 2</p>
            <img src=""images/instructions/1.png"" style=""width: 300px; height: auto;"">
          </div>
        </div>
        <h2>Correct Answer</h2>
        <p>The correct answer is: <strong>event 2 causes event 1</strong>.</p>
        <p>Click ""Next"" to proceed to the next example.</p>","0","","","",""
"","","","","","html-button-response","6","71120","0.0-6.0","","5382","
        <div style=""display: flex; justify-content: center; align-items: center;"">
          <div style=""text-align: center; margin-right: 20px;"">
            <p style=""font-size: 24px; font-weight: bold;"">Event 1<p>
            <img src=""images/instructions/5.png"" style=""width: 300px; height: auto;"">
          </div>
          <div style=""text-align: center; margin-left: 20px;"">
            <p style=""font-size: 24px; font-weight: bold;"">Event 2</p>
            <img src=""images/instructions/6.png"" style=""width: 300px; height: auto;"">
          </div>
        </div>
        <p style=""text-align: center; margin-top: 20px;"">Did one event cause the other?</p>","2","","","",""
"","","","","","html-button-response","7","72818","0.0-7.0","","1697","
        <div style=""display: flex; justify-content: center; align-items: center;"">
          <div style=""text-align: center; margin-right: 20px;"">
            <p style=""font-size: 24px; font-weight: bold;"">Event 1<p>
            <img src=""images/instructions/5.png"" style=""width: 300px; height: auto;"">
          </div>
          <div style=""text-align: center; margin-left: 20px;"">
            <p style=""font-size: 24px; font-weight: bold;"">Event 2</p>
            <img src=""images/instructions/6.png"" style=""width: 300px; height: auto;"">
          </div>
        </div>
        <h2>Correct Answer</h2>
        <p>The correct answer is: <strong>events are unrelated</strong>.</p>
        <p>Click ""Next"" to proceed to the experiment.</p>","0","","","",""
"","","","","","html-button-response","8","74077","0.0-8.0","","1259","
        <h2>Get Ready!</h2>
        <p>You have completed the examples. The experiment is about to begin.</p>
        <p>Click ""Start"" to begin the experiment.</p>","0","","","",""
"","","","","","html-button-response","9","80810","0.0-9.0","","6732","
        <div style=""display: flex; justify-content: center; align-items: center;"">
          <div style=""text-align: center; margin-right: 20px;"">
            <p style=""font-size: 24px; font-weight: bold;"">Event 1</p>
            <img src=""images/causal/market_semantic/market_semantic_6.png"" style=""width: 300px; height: auto;"">
          </div>
          <div style=""text-align: center; margin-left: 20px;"">
            <p style=""font-size: 24px; font-weight: bold;"">Event 2</p>
            <img src=""images/causal/market_semantic/market_semantic_9.png"" style=""width: 300px; height: auto;"">
          </div>
        </div>
        <p style=""text-align: center; margin-top: 20px;"">Did one event cause the other?</p>","2","6","9","true","market_semantic"
"","","","","","html-button-response","10","93243","0.0-10.0","","12432","
        <div style=""display: flex; justify-content: center; align-items: center;"">
          <div style=""text-align: center; margin-right: 20px;"">
            <p style=""font-size: 24px; font-weight: bold;"">Event 1</p>
            <img src=""images/causal/hotel_scheme/hotel_scheme_5.png"" style=""width: 300px; height: auto;"">
          </div>
          <div style=""text-align: center; margin-left: 20px;"">
            <p style=""font-size: 24px; font-weight: bold;"">Event 2</p>
            <img src=""images/causal/hotel_scheme/hotel_scheme_1.png"" style=""width: 300px; height: auto;"">
          </div>
        </div>
        <p style=""text-align: center; margin-top: 20px;"">Did one event cause the other?</p>","1","5","1","true","hotel_scheme"
"","","","","","html-button-response","11","104510","0.0-11.0","","11267","
        <div style=""display: flex; justify-content: center; align-items: center;"">
          <div style=""text-align: center; margin-right: 20px;"">
            <p style=""font-size: 24px; font-weight: bold;"">Event 1</p>
            <img src=""images/causal/kitchen_operations_semantic/kitchen_operations_semantic_6.png"" style=""width: 300px; height: auto;"">
          </div>
          <div style=""text-align: center; margin-left: 20px;"">
            <p style=""font-size: 24px; font-weight: bold;"">Event 2</p>
            <img src=""images/causal/kitchen_operations_semantic/kitchen_operations_semantic_8.png"" style=""width: 300px; height: auto;"">
          </div>
        </div>
        <p style=""text-align: center; margin-top: 20px;"">Did one event cause the other?</p>","2","6","8","true","kitchen_operations_semantic"
"","","","","","html-button-response","12","110266","0.0-12.0","","5755","
        <div style=""display: flex; justify-content: center; align-items: center;"">
          <div style=""text-align: center; margin-right: 20px;"">
            <p style=""font-size: 24px; font-weight: bold;"">Event 1</p>
            <img src=""images/causal/maintaining_a_car_semantic/maintaining_a_car_semantic_5.png"" style=""width: 300px; height: auto;"">
          </div>
          <div style=""text-align: center; margin-left: 20px;"">
            <p style=""font-size: 24px; font-weight: bold;"">Event 2</p>
            <img src=""images/causal/maintaining_a_car_semantic/maintaining_a_car_semantic_9.png"" style=""width: 300px; height: auto;"">
          </div>
        </div>
        <p style=""text-align: center; margin-top: 20px;"">Did one event cause the other?</p>","2","5","9","true","maintaining_a_car_semantic"
"","","","","","html-button-response","13","116831","0.0-13.0","","6565","
        <div style=""display: flex; justify-content: center; align-items: center;"">
          <div style=""text-align: center; margin-right: 20px;"">
            <p style=""font-size: 24px; font-weight: bold;"">Event 1</p>
            <img src=""images/causal/maintaining_a_car_semantic/maintaining_a_car_semantic_ten.png"" style=""width: 300px; height: auto;"">
          </div>
          <div style=""text-align: center; margin-left: 20px;"">
            <p style=""font-size: 24px; font-weight: bold;"">Event 2</p>
            <img src=""images/causal/maintaining_a_car_semantic/maintaining_a_car_semantic_3.png"" style=""width: 300px; height: auto;"">
          </div>
        </div>
        <p style=""text-align: center; margin-top: 20px;"">Did one event cause the other?</p>","2","10","3","true","maintaining_a_car_semantic"
"","","","","","html-button-response","14","122163","0.0-14.0","","5332","
        <div style=""display: flex; justify-content: center; align-items: center;"">
          <div style=""text-align: center; margin-right: 20px;"">
            <p style=""font-size: 24px; font-weight: bold;"">Event 1</p>
            <img src=""images/causal/maintaining_a_car_semantic/maintaining_a_car_semantic_ten.png"" style=""width: 300px; height: auto;"">
          </div>
          <div style=""text-align: center; margin-left: 20px;"">
            <p style=""font-size: 24px; font-weight: bold;"">Event 2</p>
            <img src=""images/causal/maintaining_a_car_semantic/maintaining_a_car_semantic_7.png"" style=""width: 300px; height: auto;"">
          </div>
        </div>
        <p style=""text-align: center; margin-top: 20px;"">Did one event cause the other?</p>","2","10","7","true","maintaining_a_car_semantic"
"","","","","","html-button-response","15","140075","0.0-15.0","","17911","
        <div style=""display: flex; justify-content: center; align-items: center;"">
          <div style=""text-align: center; margin-right: 20px;"">
            <p style=""font-size: 24px; font-weight: bold;"">Event 1</p>
            <img src=""images/causal/interview_scheme/interview_scheme_4.png"" style=""width: 300px; height: auto;"">
          </div>
          <div style=""text-align: center; margin-left: 20px;"">
            <p style=""font-size: 24px; font-weight: bold;"">Event 2</p>
            <img src=""images/causal/interview_scheme/interview_scheme_1.png"" style=""width: 300px; height: auto;"">
          </div>
        </div>
        <p style=""text-align: center; margin-top: 20px;"">Did one event cause the other?</p>","2","4","1","true","interview_scheme"
"","","","","","html-button-response","16","147839","0.0-16.0","","7764","
        <div style=""display: flex; justify-content: center; align-items: center;"">
          <div style=""text-align: center; margin-right: 20px;"">
            <p style=""font-size: 24px; font-weight: bold;"">Event 1</p>
            <img src=""images/causal/hotel_scheme/hotel_scheme_2.png"" style=""width: 300px; height: auto;"">
          </div>
          <div style=""text-align: center; margin-left: 20px;"">
            <p style=""font-size: 24px; font-weight: bold;"">Event 2</p>
            <img src=""images/causal/hotel_scheme/hotel_scheme_9.png"" style=""width: 300px; height: auto;"">
          </div>
        </div>
        <p style=""text-align: center; margin-top: 20px;"">Did one event cause the other?</p>","2","2","9","true","hotel_scheme"
"","","","","","html-button-response","17","153176","0.0-17.0","","5336","
        <div style=""display: flex; justify-content: center; align-items: center;"">
          <div style=""text-align: center; margin-right: 20px;"">
            <p style=""font-size: 24px; font-weight: bold;"">Event 1</p>
            <img src=""images/causal/package_causal/package_causal_2.png"" style=""width: 300px; height: auto;"">
          </div>
          <div style=""text-align: center; margin-left: 20px;"">
            <p style=""font-size: 24px; font-weight: bold;"">Event 2</p>
            <img src=""images/causal/package_causal/package_causal_8.png"" style=""width: 300px; height: auto;"">
          </div>
        </div>
        <p style=""text-align: center; margin-top: 20px;"">Did one event cause the other?</p>","2","2","8","true","package_causal"
"","","","","","html-button-response","18","158523","0.0-18.0","","5347","
        <div style=""display: flex; justify-content: center; align-items: center;"">
          <div style=""text-align: center; margin-right: 20px;"">
            <p style=""font-size: 24px; font-weight: bold;"">Event 1</p>
            <img src=""images/causal/kitchen_operations_semantic/kitchen_operations_semantic_1.png"" style=""width: 300px; height: auto;"">
          </div>
          <div style=""text-align: center; margin-left: 20px;"">
            <p style=""font-size: 24px; font-weight: bold;"">Event 2</p>
            <img src=""images/causal/kitchen_operations_semantic/kitchen_operations_semantic_2.png"" style=""width: 300px; height: auto;"">
          </div>
        </div>
        <p style=""text-align: center; margin-top: 20px;"">Did one event cause the other?</p>","2","1","2","true","kitchen_operations_semantic"
"","","","","","html-button-response","19","163865","0.0-19.0","","5342","
        <div style=""display: flex; justify-content: center; align-items: center;"">
          <div style=""text-align: center; margin-right: 20px;"">
            <p style=""font-size: 24px; font-weight: bold;"">Event 1</p>
            <img src=""images/causal/museum_causal/museum_causal_9.png"" style=""width: 300px; height: auto;"">
          </div>
          <div style=""text-align: center; margin-left: 20px;"">
            <p style=""font-size: 24px; font-weight: bold;"">Event 2</p>
            <img src=""images/causal/museum_causal/museum_causal_2.png"" style=""width: 300px; height: auto;"">
          </div>
        </div>
        <p style=""text-align: center; margin-top: 20px;"">Did one event cause the other?</p>","2","9","2","true","museum_causal"
"","","","","","html-button-response","20","171180","0.0-20.0","","7314","
        <div style=""display: flex; justify-content: center; align-items: center;"">
          <div style=""text-align: center; margin-right: 20px;"">
            <p style=""font-size: 24px; font-weight: bold;"">Event 1</p>
            <img src=""images/causal/museum_causal/museum_causal_5.png"" style=""width: 300px; height: auto;"">
          </div>
          <div style=""text-align: center; margin-left: 20px;"">
            <p style=""font-size: 24px; font-weight: bold;"">Event 2</p>
            <img src=""images/causal/museum_causal/museum_causal_3.png"" style=""width: 300px; height: auto;"">
          </div>
        </div>
        <p style=""text-align: center; margin-top: 20px;"">Did one event cause the other?</p>","1","5","3","true","museum_causal"
"","","","","","html-button-response","21","182497","0.0-21.0","","11316","
        <div style=""display: flex; justify-content: center; align-items: center;"">
          <div style=""text-align: center; margin-right: 20px;"">
            <p style=""font-size: 24px; font-weight: bold;"">Event 1</p>
            <img src=""images/causal/hotel_scheme/hotel_scheme_1.png"" style=""width: 300px; height: auto;"">
          </div>
          <div style=""text-align: center; margin-left: 20px;"">
            <p style=""font-size: 24px; font-weight: bold;"">Event 2</p>
            <img src=""images/causal/hotel_scheme/hotel_scheme_9.png"" style=""width: 300px; height: auto;"">
          </div>
        </div>
        <p style=""text-align: center; margin-top: 20px;"">Did one event cause the other?</p>","2","1","9","true","hotel_scheme"
"","","","","","html-button-response","22","188215","0.0-22.0","","5718","
        <div style=""display: flex; justify-content: center; align-items: center;"">
          <div style=""text-align: center; margin-right: 20px;"">
            <p style=""font-size: 24px; font-weight: bold;"">Event 1</p>
            <img src=""images/causal/package_causal/package_causal_4.png"" style=""width: 300px; height: auto;"">
          </div>
          <div style=""text-align: center; margin-left: 20px;"">
            <p style=""font-size: 24px; font-weight: bold;"">Event 2</p>
            <img src=""images/causal/package_causal/package_causal_7.png"" style=""width: 300px; height: auto;"">
          </div>
        </div>
        <p style=""text-align: center; margin-top: 20px;"">Did one event cause the other?</p>","0","4","7","true","package_causal"
"","","","","","html-button-response","23","198123","0.0-23.0","","9907","
        <div style=""display: flex; justify-content: center; align-items: center;"">
          <div style=""text-align: center; margin-right: 20px;"">
            <p style=""font-size: 24px; font-weight: bold;"">Event 1</p>
            <img src=""images/causal/physical_activity_semantic/physical_activity_semantic_5.png"" style=""width: 300px; height: auto;"">
          </div>
          <div style=""text-align: center; margin-left: 20px;"">
            <p style=""font-size: 24px; font-weight: bold;"">Event 2</p>
            <img src=""images/causal/physical_activity_semantic/physical_activity_semantic_3.png"" style=""width: 300px; height: auto;"">
          </div>
        </div>
        <p style=""text-align: center; margin-top: 20px;"">Did one event cause the other?</p>","2","5","3","true","physical_activity_semantic"
"","","","","","html-button-response","24","204009","0.0-24.0","","5886","
        <div style=""display: flex; justify-content: center; align-items: center;"">
          <div style=""text-align: center; margin-right: 20px;"">
            <p style=""font-size: 24px; font-weight: bold;"">Event 1</p>
            <img src=""images/causal/package_causal/package_causal_4.png"" style=""width: 300px; height: auto;"">
          </div>
          <div style=""text-align: center; margin-left: 20px;"">
            <p style=""font-size: 24px; font-weight: bold;"">Event 2</p>
            <img src=""images/causal/package_causal/package_causal_2.png"" style=""width: 300px; height: auto;"">
          </div>
        </div>
        <p style=""text-align: center; margin-top: 20px;"">Did one event cause the other?</p>","2","4","2","true","package_causal"
"","","","","","html-button-response","25","209339","0.0-25.0","","5329","
        <div style=""display: flex; justify-content: center; align-items: center;"">
          <div style=""text-align: center; margin-right: 20px;"">
            <p style=""font-size: 24px; font-weight: bold;"">Event 1</p>
            <img src=""images/causal/physical_activity_semantic/physical_activity_semantic_5.png"" style=""width: 300px; height: auto;"">
          </div>
          <div style=""text-align: center; margin-left: 20px;"">
            <p style=""font-size: 24px; font-weight: bold;"">Event 2</p>
            <img src=""images/causal/physical_activity_semantic/physical_activity_semantic_2.png"" style=""width: 300px; height: auto;"">
          </div>
        </div>
        <p style=""text-align: center; margin-top: 20px;"">Did one event cause the other?</p>","2","5","2","true","physical_activity_semantic"
"","","","","","html-button-response","26","214678","0.0-26.0","","5339","
        <div style=""display: flex; justify-content: center; align-items: center;"">
          <div style=""text-align: center; margin-right: 20px;"">
            <p style=""font-size: 24px; font-weight: bold;"">Event 1</p>
            <img src=""images/causal/kitchen_operations_semantic/kitchen_operations_semantic_ten.png"" style=""width: 300px; height: auto;"">
          </div>
          <div style=""text-align: center; margin-left: 20px;"">
            <p style=""font-size: 24px; font-weight: bold;"">Event 2</p>
            <img src=""images/causal/kitchen_operations_semantic/kitchen_operations_semantic_9.png"" style=""width: 300px; height: auto;"">
          </div>
        </div>
        <p style=""text-align: center; margin-top: 20px;"">Did one event cause the other?</p>","2","10","9","true","kitchen_operations_semantic"
"","","","","","html-button-response","27","223193","0.0-27.0","","8515","
        <div style=""display: flex; justify-content: center; align-items: center;"">
          <div style=""text-align: center; margin-right: 20px;"">
            <p style=""font-size: 24px; font-weight: bold;"">Event 1</p>
            <img src=""images/causal/museum_causal/museum_causal_ten.png"" style=""width: 300px; height: auto;"">
          </div>
          <div style=""text-align: center; margin-left: 20px;"">
            <p style=""font-size: 24px; font-weight: bold;"">Event 2</p>
            <img src=""images/causal/museum_causal/museum_causal_4.png"" style=""width: 300px; height: auto;"">
          </div>
        </div>
        <p style=""text-align: center; margin-top: 20px;"">Did one event cause the other?</p>","2","10","4","true","museum_causal"
"","","","","","html-button-response","28","232146","0.0-28.0","","8953","
        <div style=""display: flex; justify-content: center; align-items: center;"">
          <div style=""text-align: center; margin-right: 20px;"">
            <p style=""font-size: 24px; font-weight: bold;"">Event 1</p>
            <img src=""images/causal/interview_scheme/interview_scheme_1.png"" style=""width: 300px; height: auto;"">
          </div>
          <div style=""text-align: center; margin-left: 20px;"">
            <p style=""font-size: 24px; font-weight: bold;"">Event 2</p>
            <img src=""images/causal/interview_scheme/interview_scheme_5.png"" style=""width: 300px; height: auto;"">
          </div>
        </div>
        <p style=""text-align: center; margin-top: 20px;"">Did one event cause the other?</p>","0","1","5","true","interview_scheme"
"","","","","","html-button-response","29","262147","0.0-29.0","","30000","
        <div style=""display: flex; justify-content: center; align-items: center;"">
          <div style=""text-align: center; margin-right: 20px;"">
            <p style=""font-size: 24px; font-weight: bold;"">Event 1</p>
            <img src=""images/causal/interview_scheme/interview_scheme_2.png"" style=""width: 300px; height: auto;"">
          </div>
          <div style=""text-align: center; margin-left: 20px;"">
            <p style=""font-size: 24px; font-weight: bold;"">Event 2</p>
            <img src=""images/causal/interview_scheme/interview_scheme_6.png"" style=""width: 300px; height: auto;"">
          </div>
        </div>
        <p style=""text-align: center; margin-top: 20px;"">Did one event cause the other?</p>","0","2","6","true","interview_scheme"
"","","","","","html-button-response","30","267508","0.0-30.0","","5360","
        <div style=""display: flex; justify-content: center; align-items: center;"">
          <div style=""text-align: center; margin-right: 20px;"">
            <p style=""font-size: 24px; font-weight: bold;"">Event 1</p>
            <img src=""images/causal/kitchen_operations_semantic/kitchen_operations_semantic_4.png"" style=""width: 300px; height: auto;"">
          </div>
          <div style=""text-align: center; margin-left: 20px;"">
            <p style=""font-size: 24px; font-weight: bold;"">Event 2</p>
            <img src=""images/causal/kitchen_operations_semantic/kitchen_operations_semantic_8.png"" style=""width: 300px; height: auto;"">
          </div>
        </div>
        <p style=""text-align: center; margin-top: 20px;"">Did one event cause the other?</p>","2","4","8","true","kitchen_operations_semantic"
"","","","","","html-button-response","31","273071","0.0-31.0","","5562","
        <div style=""display: flex; justify-content: center; align-items: center;"">
          <div style=""text-align: center; margin-right: 20px;"">
            <p style=""font-size: 24px; font-weight: bold;"">Event 1</p>
            <img src=""images/causal/market_semantic/market_semantic_1.png"" style=""width: 300px; height: auto;"">
          </div>
          <div style=""text-align: center; margin-left: 20px;"">
            <p style=""font-size: 24px; font-weight: bold;"">Event 2</p>
            <img src=""images/causal/market_semantic/market_semantic_3.png"" style=""width: 300px; height: auto;"">
          </div>
        </div>
        <p style=""text-align: center; margin-top: 20px;"">Did one event cause the other?</p>","2","1","3","true","market_semantic"
"","","","","","html-button-response","32","280747","0.0-32.0","","7676","
        <div style=""display: flex; justify-content: center; align-items: center;"">
          <div style=""text-align: center; margin-right: 20px;"">
            <p style=""font-size: 24px; font-weight: bold;"">Event 1</p>
            <img src=""images/causal/interview_scheme/interview_scheme_ten.png"" style=""width: 300px; height: auto;"">
          </div>
          <div style=""text-align: center; margin-left: 20px;"">
            <p style=""font-size: 24px; font-weight: bold;"">Event 2</p>
            <img src=""images/causal/interview_scheme/interview_scheme_5.png"" style=""width: 300px; height: auto;"">
          </div>
        </div>
        <p style=""text-align: center; margin-top: 20px;"">Did one event cause the other?</p>","1","10","5","true","interview_scheme"
"","","","","","html-button-response","33","286064","0.0-33.0","","5317","
        <div style=""display: flex; justify-content: center; align-items: center;"">
          <div style=""text-align: center; margin-right: 20px;"">
            <p style=""font-size: 24px; font-weight: bold;"">Event 1</p>
            <img src=""images/causal/market_semantic/market_semantic_2.png"" style=""width: 300px; height: auto;"">
          </div>
          <div style=""text-align: center; margin-left: 20px;"">
            <p style=""font-size: 24px; font-weight: bold;"">Event 2</p>
            <img src=""images/causal/market_semantic/market_semantic_ten.png"" style=""width: 300px; height: auto;"">
          </div>
        </div>
        <p style=""text-align: center; margin-top: 20px;"">Did one event cause the other?</p>","2","2","10","true","market_semantic"
"","","","","","html-button-response","34","295537","0.0-34.0","","9472","
        <div style=""display: flex; justify-content: center; align-items: center;"">
          <div style=""text-align: center; margin-right: 20px;"">
            <p style=""font-size: 24px; font-weight: bold;"">Event 1</p>
            <img src=""images/causal/kitchen_operations_semantic/kitchen_operations_semantic_6.png"" style=""width: 300px; height: auto;"">
          </div>
          <div style=""text-align: center; margin-left: 20px;"">
            <p style=""font-size: 24px; font-weight: bold;"">Event 2</p>
            <img src=""images/causal/kitchen_operations_semantic/kitchen_operations_semantic_4.png"" style=""width: 300px; height: auto;"">
          </div>
        </div>
        <p style=""text-align: center; margin-top: 20px;"">Did one event cause the other?</p>","0","6","4","true","kitchen_operations_semantic"
"","","","","","html-button-response","35","300866","0.0-35.0","","5328","
        <div style=""display: flex; justify-content: center; align-items: center;"">
          <div style=""text-align: center; margin-right: 20px;"">
            <p style=""font-size: 24px; font-weight: bold;"">Event 1</p>
            <img src=""images/causal/museum_causal/museum_causal_4.png"" style=""width: 300px; height: auto;"">
          </div>
          <div style=""text-align: center; margin-left: 20px;"">
            <p style=""font-size: 24px; font-weight: bold;"">Event 2</p>
            <img src=""images/causal/museum_causal/museum_causal_7.png"" style=""width: 300px; height: auto;"">
          </div>
        </div>
        <p style=""text-align: center; margin-top: 20px;"">Did one event cause the other?</p>","2","4","7","true","museum_causal"
"","","","","","html-button-response","36","306300","0.0-36.0","","5433","
        <div style=""display: flex; justify-content: center; align-items: center;"">
          <div style=""text-align: center; margin-right: 20px;"">
            <p style=""font-size: 24px; font-weight: bold;"">Event 1</p>
            <img src=""images/causal/package_causal/package_causal_5.png"" style=""width: 300px; height: auto;"">
          </div>
          <div style=""text-align: center; margin-left: 20px;"">
            <p style=""font-size: 24px; font-weight: bold;"">Event 2</p>
            <img src=""images/causal/package_causal/package_causal_1.png"" style=""width: 300px; height: auto;"">
          </div>
        </div>
        <p style=""text-align: center; margin-top: 20px;"">Did one event cause the other?</p>","2","5","1","true","package_causal"
"","","","","","html-button-response","37","311944","0.0-37.0","","5643","
        <div style=""display: flex; justify-content: center; align-items: center;"">
          <div style=""text-align: center; margin-right: 20px;"">
            <p style=""font-size: 24px; font-weight: bold;"">Event 1</p>
            <img src=""images/causal/market_semantic/market_semantic_7.png"" style=""width: 300px; height: auto;"">
          </div>
          <div style=""text-align: center; margin-left: 20px;"">
            <p style=""font-size: 24px; font-weight: bold;"">Event 2</p>
            <img src=""images/causal/market_semantic/market_semantic_1.png"" style=""width: 300px; height: auto;"">
          </div>
        </div>
        <p style=""text-align: center; margin-top: 20px;"">Did one event cause the other?</p>","2","7","1","true","market_semantic"
"","","","","","html-button-response","38","317342","0.0-38.0","","5398","
        <div style=""display: flex; justify-content: center; align-items: center;"">
          <div style=""text-align: center; margin-right: 20px;"">
            <p style=""font-size: 24px; font-weight: bold;"">Event 1</p>
            <img src=""images/causal/physical_activity_semantic/physical_activity_semantic_4.png"" style=""width: 300px; height: auto;"">
          </div>
          <div style=""text-align: center; margin-left: 20px;"">
            <p style=""font-size: 24px; font-weight: bold;"">Event 2</p>
            <img src=""images/causal/physical_activity_semantic/physical_activity_semantic_1.png"" style=""width: 300px; height: auto;"">
          </div>
        </div>
        <p style=""text-align: center; margin-top: 20px;"">Did one event cause the other?</p>","2","4","1","true","physical_activity_semantic"
"","","","","","html-button-response","39","322921","0.0-39.0","","5578","
        <div style=""display: flex; justify-content: center; align-items: center;"">
          <div style=""text-align: center; margin-right: 20px;"">
            <p style=""font-size: 24px; font-weight: bold;"">Event 1</p>
            <img src=""images/causal/package_causal/package_causal_7.png"" style=""width: 300px; height: auto;"">
          </div>
          <div style=""text-align: center; margin-left: 20px;"">
            <p style=""font-size: 24px; font-weight: bold;"">Event 2</p>
            <img src=""images/causal/package_causal/package_causal_5.png"" style=""width: 300px; height: auto;"">
          </div>
        </div>
        <p style=""text-align: center; margin-top: 20px;"">Did one event cause the other?</p>","1","7","5","true","package_causal"
"","","","","","html-button-response","40","328415","0.0-40.0","","5494","
        <div style=""display: flex; justify-content: center; align-items: center;"">
          <div style=""text-align: center; margin-right: 20px;"">
            <p style=""font-size: 24px; font-weight: bold;"">Event 1</p>
            <img src=""images/causal/physical_activity_semantic/physical_activity_semantic_7.png"" style=""width: 300px; height: auto;"">
          </div>
          <div style=""text-align: center; margin-left: 20px;"">
            <p style=""font-size: 24px; font-weight: bold;"">Event 2</p>
            <img src=""images/causal/physical_activity_semantic/physical_activity_semantic_4.png"" style=""width: 300px; height: auto;"">
          </div>
        </div>
        <p style=""text-align: center; margin-top: 20px;"">Did one event cause the other?</p>","2","7","4","true","physical_activity_semantic"
"","","","","","html-button-response","41","334575","0.0-41.0","","6159","
        <div style=""display: flex; justify-content: center; align-items: center;"">
          <div style=""text-align: center; margin-right: 20px;"">
            <p style=""font-size: 24px; font-weight: bold;"">Event 1</p>
            <img src=""images/causal/hotel_scheme/hotel_scheme_8.png"" style=""width: 300px; height: auto;"">
          </div>
          <div style=""text-align: center; margin-left: 20px;"">
            <p style=""font-size: 24px; font-weight: bold;"">Event 2</p>
            <img src=""images/causal/hotel_scheme/hotel_scheme_4.png"" style=""width: 300px; height: auto;"">
          </div>
        </div>
        <p style=""text-align: center; margin-top: 20px;"">Did one event cause the other?</p>","2","8","4","true","hotel_scheme"
"","","","","","html-button-response","42","354873","0.0-42.0","","20297","
        <div style=""display: flex; justify-content: center; align-items: center;"">
          <div style=""text-align: center; margin-right: 20px;"">
            <p style=""font-size: 24px; font-weight: bold;"">Event 1</p>
            <img src=""images/causal/package_causal/package_causal_3.png"" style=""width: 300px; height: auto;"">
          </div>
          <div style=""text-align: center; margin-left: 20px;"">
            <p style=""font-size: 24px; font-weight: bold;"">Event 2</p>
            <img src=""images/causal/package_causal/package_causal_4.png"" style=""width: 300px; height: auto;"">
          </div>
        </div>
        <p style=""text-align: center; margin-top: 20px;"">Did one event cause the other?</p>","0","3","4","true","package_causal"
"","","","","","html-button-response","43","360352","0.0-43.0","","5478","
        <div style=""display: flex; justify-content: center; align-items: center;"">
          <div style=""text-align: center; margin-right: 20px;"">
            <p style=""font-size: 24px; font-weight: bold;"">Event 1</p>
            <img src=""images/causal/market_semantic/market_semantic_8.png"" style=""width: 300px; height: auto;"">
          </div>
          <div style=""text-align: center; margin-left: 20px;"">
            <p style=""font-size: 24px; font-weight: bold;"">Event 2</p>
            <img src=""images/causal/market_semantic/market_semantic_4.png"" style=""width: 300px; height: auto;"">
          </div>
        </div>
        <p style=""text-align: center; margin-top: 20px;"">Did one event cause the other?</p>","2","8","4","true","market_semantic"
"","","","","","html-button-response","44","370123","0.0-44.0","","9771","
        <div style=""display: flex; justify-content: center; align-items: center;"">
          <div style=""text-align: center; margin-right: 20px;"">
            <p style=""font-size: 24px; font-weight: bold;"">Event 1</p>
            <img src=""images/causal/interview_scheme/interview_scheme_5.png"" style=""width: 300px; height: auto;"">
          </div>
          <div style=""text-align: center; margin-left: 20px;"">
            <p style=""font-size: 24px; font-weight: bold;"">Event 2</p>
            <img src=""images/causal/interview_scheme/interview_scheme_9.png"" style=""width: 300px; height: auto;"">
          </div>
        </div>
        <p style=""text-align: center; margin-top: 20px;"">Did one event cause the other?</p>","0","5","9","true","interview_scheme"
"","","","","","html-button-response","45","375894","0.0-45.0","","5770","
        <div style=""display: flex; justify-content: center; align-items: center;"">
          <div style=""text-align: center; margin-right: 20px;"">
            <p style=""font-size: 24px; font-weight: bold;"">Event 1</p>
            <img src=""images/causal/maintaining_a_car_semantic/maintaining_a_car_semantic_7.png"" style=""width: 300px; height: auto;"">
          </div>
          <div style=""text-align: center; margin-left: 20px;"">
            <p style=""font-size: 24px; font-weight: bold;"">Event 2</p>
            <img src=""images/causal/maintaining_a_car_semantic/maintaining_a_car_semantic_3.png"" style=""width: 300px; height: auto;"">
          </div>
        </div>
        <p style=""text-align: center; margin-top: 20px;"">Did one event cause the other?</p>","2","7","3","true","maintaining_a_car_semantic"
"","","","","","html-button-response","46","381679","0.0-46.0","","5785","
        <div style=""display: flex; justify-content: center; align-items: center;"">
          <div style=""text-align: center; margin-right: 20px;"">
            <p style=""font-size: 24px; font-weight: bold;"">Event 1</p>
            <img src=""images/causal/physical_activity_semantic/physical_activity_semantic_2.png"" style=""width: 300px; height: auto;"">
          </div>
          <div style=""text-align: center; margin-left: 20px;"">
            <p style=""font-size: 24px; font-weight: bold;"">Event 2</p>
            <img src=""images/causal/physical_activity_semantic/physical_activity_semantic_4.png"" style=""width: 300px; height: auto;"">
          </div>
        </div>
        <p style=""text-align: center; margin-top: 20px;"">Did one event cause the other?</p>","2","2","4","true","physical_activity_semantic"
"","","","","","html-button-response","47","397871","0.0-47.0","","16190","
        <div style=""display: flex; justify-content: center; align-items: center;"">
          <div style=""text-align: center; margin-right: 20px;"">
            <p style=""font-size: 24px; font-weight: bold;"">Event 1</p>
            <img src=""images/causal/physical_activity_semantic/physical_activity_semantic_9.png"" style=""width: 300px; height: auto;"">
          </div>
          <div style=""text-align: center; margin-left: 20px;"">
            <p style=""font-size: 24px; font-weight: bold;"">Event 2</p>
            <img src=""images/causal/physical_activity_semantic/physical_activity_semantic_2.png"" style=""width: 300px; height: auto;"">
          </div>
        </div>
        <p style=""text-align: center; margin-top: 20px;"">Did one event cause the other?</p>","2","9","2","true","physical_activity_semantic"
"","","","","","html-button-response","48","409328","0.0-48.0","","11456","
        <div style=""display: flex; justify-content: center; align-items: center;"">
          <div style=""text-align: center; margin-right: 20px;"">
            <p style=""font-size: 24px; font-weight: bold;"">Event 1</p>
            <img src=""images/causal/interview_scheme/interview_scheme_4.png"" style=""width: 300px; height: auto;"">
          </div>
          <div style=""text-align: center; margin-left: 20px;"">
            <p style=""font-size: 24px; font-weight: bold;"">Event 2</p>
            <img src=""images/causal/interview_scheme/interview_scheme_9.png"" style=""width: 300px; height: auto;"">
          </div>
        </div>
        <p style=""text-align: center; margin-top: 20px;"">Did one event cause the other?</p>","2","4","9","true","interview_scheme"
"","","","","","html-button-response","49","414735","0.0-49.0","","5406","
        <div style=""display: flex; justify-content: center; align-items: center;"">
          <div style=""text-align: center; margin-right: 20px;"">
            <p style=""font-size: 24px; font-weight: bold;"">Event 1</p>
            <img src=""images/causal/museum_causal/museum_causal_1.png"" style=""width: 300px; height: auto;"">
          </div>
          <div style=""text-align: center; margin-left: 20px;"">
            <p style=""font-size: 24px; font-weight: bold;"">Event 2</p>
            <img src=""images/causal/museum_causal/museum_causal_9.png"" style=""width: 300px; height: auto;"">
          </div>
        </div>
        <p style=""text-align: center; margin-top: 20px;"">Did one event cause the other?</p>","2","1","9","true","museum_causal"
"","","","","","html-button-response","50","424741","0.0-50.0","","10006","
        <div style=""display: flex; justify-content: center; align-items: center;"">
          <div style=""text-align: center; margin-right: 20px;"">
            <p style=""font-size: 24px; font-weight: bold;"">Event 1</p>
            <img src=""images/causal/market_semantic/market_semantic_9.png"" style=""width: 300px; height: auto;"">
          </div>
          <div style=""text-align: center; margin-left: 20px;"">
            <p style=""font-size: 24px; font-weight: bold;"">Event 2</p>
            <img src=""images/causal/market_semantic/market_semantic_1.png"" style=""width: 300px; height: auto;"">
          </div>
        </div>
        <p style=""text-align: center; margin-top: 20px;"">Did one event cause the other?</p>","2","9","1","true","market_semantic"
"","","","","","html-button-response","51","430974","0.0-51.0","","6232","
        <div style=""display: flex; justify-content: center; align-items: center;"">
          <div style=""text-align: center; margin-right: 20px;"">
            <p style=""font-size: 24px; font-weight: bold;"">Event 1</p>
            <img src=""images/causal/museum_causal/museum_causal_ten.png"" style=""width: 300px; height: auto;"">
          </div>
          <div style=""text-align: center; margin-left: 20px;"">
            <p style=""font-size: 24px; font-weight: bold;"">Event 2</p>
            <img src=""images/causal/museum_causal/museum_causal_7.png"" style=""width: 300px; height: auto;"">
          </div>
        </div>
        <p style=""text-align: center; margin-top: 20px;"">Did one event cause the other?</p>","1","10","7","true","museum_causal"
"","","","","","html-button-response","52","440889","0.0-52.0","","9915","
        <div style=""display: flex; justify-content: center; align-items: center;"">
          <div style=""text-align: center; margin-right: 20px;"">
            <p style=""font-size: 24px; font-weight: bold;"">Event 1</p>
            <img src=""images/causal/market_semantic/market_semantic_3.png"" style=""width: 300px; height: auto;"">
          </div>
          <div style=""text-align: center; margin-left: 20px;"">
            <p style=""font-size: 24px; font-weight: bold;"">Event 2</p>
            <img src=""images/causal/market_semantic/market_semantic_ten.png"" style=""width: 300px; height: auto;"">
          </div>
        </div>
        <p style=""text-align: center; margin-top: 20px;"">Did one event cause the other?</p>","2","3","10","true","market_semantic"
"","","","","","html-button-response","53","446249","0.0-53.0","","5359","
        <div style=""display: flex; justify-content: center; align-items: center;"">
          <div style=""text-align: center; margin-right: 20px;"">
            <p style=""font-size: 24px; font-weight: bold;"">Event 1</p>
            <img src=""images/causal/museum_causal/museum_causal_7.png"" style=""width: 300px; height: auto;"">
          </div>
          <div style=""text-align: center; margin-left: 20px;"">
            <p style=""font-size: 24px; font-weight: bold;"">Event 2</p>
            <img src=""images/causal/museum_causal/museum_causal_1.png"" style=""width: 300px; height: auto;"">
          </div>
        </div>
        <p style=""text-align: center; margin-top: 20px;"">Did one event cause the other?</p>","2","7","1","true","museum_causal"
"","","","","","html-button-response","54","458589","0.0-54.0","","12339","
        <div style=""display: flex; justify-content: center; align-items: center;"">
          <div style=""text-align: center; margin-right: 20px;"">
            <p style=""font-size: 24px; font-weight: bold;"">Event 1</p>
            <img src=""images/causal/market_semantic/market_semantic_8.png"" style=""width: 300px; height: auto;"">
          </div>
          <div style=""text-align: center; margin-left: 20px;"">
            <p style=""font-size: 24px; font-weight: bold;"">Event 2</p>
            <img src=""images/causal/market_semantic/market_semantic_9.png"" style=""width: 300px; height: auto;"">
          </div>
        </div>
        <p style=""text-align: center; margin-top: 20px;"">Did one event cause the other?</p>","2","8","9","true","market_semantic"
"","","","","","html-button-response","55","467198","0.0-55.0","","8608","
        <div style=""display: flex; justify-content: center; align-items: center;"">
          <div style=""text-align: center; margin-right: 20px;"">
            <p style=""font-size: 24px; font-weight: bold;"">Event 1</p>
            <img src=""images/causal/museum_causal/museum_causal_8.png"" style=""width: 300px; height: auto;"">
          </div>
          <div style=""text-align: center; margin-left: 20px;"">
            <p style=""font-size: 24px; font-weight: bold;"">Event 2</p>
            <img src=""images/causal/museum_causal/museum_causal_6.png"" style=""width: 300px; height: auto;"">
          </div>
        </div>
        <p style=""text-align: center; margin-top: 20px;"">Did one event cause the other?</p>","1","8","6","true","museum_causal"
"","","","","","html-button-response","56","474433","0.0-56.0","","7234","
        <div style=""display: flex; justify-content: center; align-items: center;"">
          <div style=""text-align: center; margin-right: 20px;"">
            <p style=""font-size: 24px; font-weight: bold;"">Event 1</p>
            <img src=""images/causal/hotel_scheme/hotel_scheme_ten.png"" style=""width: 300px; height: auto;"">
          </div>
          <div style=""text-align: center; margin-left: 20px;"">
            <p style=""font-size: 24px; font-weight: bold;"">Event 2</p>
            <img src=""images/causal/hotel_scheme/hotel_scheme_9.png"" style=""width: 300px; height: auto;"">
          </div>
        </div>
        <p style=""text-align: center; margin-top: 20px;"">Did one event cause the other?</p>","2","10","9","true","hotel_scheme"
"","","","","","html-button-response","57","481249","0.0-57.0","","6816","
        <div style=""display: flex; justify-content: center; align-items: center;"">
          <div style=""text-align: center; margin-right: 20px;"">
            <p style=""font-size: 24px; font-weight: bold;"">Event 1</p>
            <img src=""images/causal/kitchen_operations_semantic/kitchen_operations_semantic_3.png"" style=""width: 300px; height: auto;"">
          </div>
          <div style=""text-align: center; margin-left: 20px;"">
            <p style=""font-size: 24px; font-weight: bold;"">Event 2</p>
            <img src=""images/causal/kitchen_operations_semantic/kitchen_operations_semantic_ten.png"" style=""width: 300px; height: auto;"">
          </div>
        </div>
        <p style=""text-align: center; margin-top: 20px;"">Did one event cause the other?</p>","2","3","10","true","kitchen_operations_semantic"
"","","","","","html-button-response","58","492459","0.0-58.0","","11209","
        <div style=""display: flex; justify-content: center; align-items: center;"">
          <div style=""text-align: center; margin-right: 20px;"">
            <p style=""font-size: 24px; font-weight: bold;"">Event 1</p>
            <img src=""images/causal/interview_scheme/interview_scheme_6.png"" style=""width: 300px; height: auto;"">
          </div>
          <div style=""text-align: center; margin-left: 20px;"">
            <p style=""font-size: 24px; font-weight: bold;"">Event 2</p>
            <img src=""images/causal/interview_scheme/interview_scheme_9.png"" style=""width: 300px; height: auto;"">
          </div>
        </div>
        <p style=""text-align: center; margin-top: 20px;"">Did one event cause the other?</p>","0","6","9","true","interview_scheme"
"","","","","","html-button-response","59","497902","0.0-59.0","","5442","
        <div style=""display: flex; justify-content: center; align-items: center;"">
          <div style=""text-align: center; margin-right: 20px;"">
            <p style=""font-size: 24px; font-weight: bold;"">Event 1</p>
            <img src=""images/causal/maintaining_a_car_semantic/maintaining_a_car_semantic_2.png"" style=""width: 300px; height: auto;"">
          </div>
          <div style=""text-align: center; margin-left: 20px;"">
            <p style=""font-size: 24px; font-weight: bold;"">Event 2</p>
            <img src=""images/causal/maintaining_a_car_semantic/maintaining_a_car_semantic_7.png"" style=""width: 300px; height: auto;"">
          </div>
        </div>
        <p style=""text-align: center; margin-top: 20px;"">Did one event cause the other?</p>","2","2","7","true","maintaining_a_car_semantic"
"","","","","","html-button-response","60","506427","0.0-60.0","","8525","
        <div style=""display: flex; justify-content: center; align-items: center;"">
          <div style=""text-align: center; margin-right: 20px;"">
            <p style=""font-size: 24px; font-weight: bold;"">Event 1</p>
            <img src=""images/causal/package_causal/package_causal_6.png"" style=""width: 300px; height: auto;"">
          </div>
          <div style=""text-align: center; margin-left: 20px;"">
            <p style=""font-size: 24px; font-weight: bold;"">Event 2</p>
            <img src=""images/causal/package_causal/package_causal_ten.png"" style=""width: 300px; height: auto;"">
          </div>
        </div>
        <p style=""text-align: center; margin-top: 20px;"">Did one event cause the other?</p>","2","6","10","true","package_causal"
"","","","","","html-button-response","61","511786","0.0-61.0","","5358","
        <div style=""display: flex; justify-content: center; align-items: center;"">
          <div style=""text-align: center; margin-right: 20px;"">
            <p style=""font-size: 24px; font-weight: bold;"">Event 1</p>
            <img src=""images/causal/market_semantic/market_semantic_3.png"" style=""width: 300px; height: auto;"">
          </div>
          <div style=""text-align: center; margin-left: 20px;"">
            <p style=""font-size: 24px; font-weight: bold;"">Event 2</p>
            <img src=""images/causal/market_semantic/market_semantic_2.png"" style=""width: 300px; height: auto;"">
          </div>
        </div>
        <p style=""text-align: center; margin-top: 20px;"">Did one event cause the other?</p>","2","3","2","true","market_semantic"
"","","","","","html-button-response","62","517782","0.0-62.0","","5995","
        <div style=""display: flex; justify-content: center; align-items: center;"">
          <div style=""text-align: center; margin-right: 20px;"">
            <p style=""font-size: 24px; font-weight: bold;"">Event 1</p>
            <img src=""images/causal/interview_scheme/interview_scheme_3.png"" style=""width: 300px; height: auto;"">
          </div>
          <div style=""text-align: center; margin-left: 20px;"">
            <p style=""font-size: 24px; font-weight: bold;"">Event 2</p>
            <img src=""images/causal/interview_scheme/interview_scheme_4.png"" style=""width: 300px; height: auto;"">
          </div>
        </div>
        <p style=""text-align: center; margin-top: 20px;"">Did one event cause the other?</p>","0","3","4","true","interview_scheme"
"","","","","","html-button-response","63","528570","0.0-63.0","","10787","
        <div style=""display: flex; justify-content: center; align-items: center;"">
          <div style=""text-align: center; margin-right: 20px;"">
            <p style=""font-size: 24px; font-weight: bold;"">Event 1</p>
            <img src=""images/causal/museum_causal/museum_causal_8.png"" style=""width: 300px; height: auto;"">
          </div>
          <div style=""text-align: center; margin-left: 20px;"">
            <p style=""font-size: 24px; font-weight: bold;"">Event 2</p>
            <img src=""images/causal/museum_causal/museum_causal_3.png"" style=""width: 300px; height: auto;"">
          </div>
        </div>
        <p style=""text-align: center; margin-top: 20px;"">Did one event cause the other?</p>","1","8","3","true","museum_causal"
"","","","","","html-button-response","64","541339","0.0-64.0","","12768","
        <div style=""display: flex; justify-content: center; align-items: center;"">
          <div style=""text-align: center; margin-right: 20px;"">
            <p style=""font-size: 24px; font-weight: bold;"">Event 1</p>
            <img src=""images/causal/hotel_scheme/hotel_scheme_2.png"" style=""width: 300px; height: auto;"">
          </div>
          <div style=""text-align: center; margin-left: 20px;"">
            <p style=""font-size: 24px; font-weight: bold;"">Event 2</p>
            <img src=""images/causal/hotel_scheme/hotel_scheme_7.png"" style=""width: 300px; height: auto;"">
          </div>
        </div>
        <p style=""text-align: center; margin-top: 20px;"">Did one event cause the other?</p>","2","2","7","true","hotel_scheme"
"","","","","","html-button-response","65","559828","0.0-65.0","","18488","
        <div style=""display: flex; justify-content: center; align-items: center;"">
          <div style=""text-align: center; margin-right: 20px;"">
            <p style=""font-size: 24px; font-weight: bold;"">Event 1</p>
            <img src=""images/causal/interview_scheme/interview_scheme_8.png"" style=""width: 300px; height: auto;"">
          </div>
          <div style=""text-align: center; margin-left: 20px;"">
            <p style=""font-size: 24px; font-weight: bold;"">Event 2</p>
            <img src=""images/causal/interview_scheme/interview_scheme_2.png"" style=""width: 300px; height: auto;"">
          </div>
        </div>
        <p style=""text-align: center; margin-top: 20px;"">Did one event cause the other?</p>","1","8","2","true","interview_scheme"
"","","","","","html-button-response","66","576263","0.0-66.0","","16434","
        <div style=""display: flex; justify-content: center; align-items: center;"">
          <div style=""text-align: center; margin-right: 20px;"">
            <p style=""font-size: 24px; font-weight: bold;"">Event 1</p>
            <img src=""images/causal/hotel_scheme/hotel_scheme_7.png"" style=""width: 300px; height: auto;"">
          </div>
          <div style=""text-align: center; margin-left: 20px;"">
            <p style=""font-size: 24px; font-weight: bold;"">Event 2</p>
            <img src=""images/causal/hotel_scheme/hotel_scheme_4.png"" style=""width: 300px; height: auto;"">
          </div>
        </div>
        <p style=""text-align: center; margin-top: 20px;"">Did one event cause the other?</p>","1","7","4","true","hotel_scheme"
"","","","","","html-button-response","67","583218","0.0-67.0","","6955","
        <div style=""display: flex; justify-content: center; align-items: center;"">
          <div style=""text-align: center; margin-right: 20px;"">
            <p style=""font-size: 24px; font-weight: bold;"">Event 1</p>
            <img src=""images/causal/package_causal/package_causal_ten.png"" style=""width: 300px; height: auto;"">
          </div>
          <div style=""text-align: center; margin-left: 20px;"">
            <p style=""font-size: 24px; font-weight: bold;"">Event 2</p>
            <img src=""images/causal/package_causal/package_causal_2.png"" style=""width: 300px; height: auto;"">
          </div>
        </div>
        <p style=""text-align: center; margin-top: 20px;"">Did one event cause the other?</p>","2","10","2","true","package_causal"
"","","","","","html-button-response","68","588578","0.0-68.0","","5359","
        <div style=""display: flex; justify-content: center; align-items: center;"">
          <div style=""text-align: center; margin-right: 20px;"">
            <p style=""font-size: 24px; font-weight: bold;"">Event 1</p>
            <img src=""images/causal/market_semantic/market_semantic_7.png"" style=""width: 300px; height: auto;"">
          </div>
          <div style=""text-align: center; margin-left: 20px;"">
            <p style=""font-size: 24px; font-weight: bold;"">Event 2</p>
            <img src=""images/causal/market_semantic/market_semantic_5.png"" style=""width: 300px; height: auto;"">
          </div>
        </div>
        <p style=""text-align: center; margin-top: 20px;"">Did one event cause the other?</p>","2","7","5","true","market_semantic"
"","","","","","html-button-response","69","614176","0.0-69.0","","25597","
        <div style=""display: flex; justify-content: center; align-items: center;"">
          <div style=""text-align: center; margin-right: 20px;"">
            <p style=""font-size: 24px; font-weight: bold;"">Event 1</p>
            <img src=""images/causal/maintaining_a_car_semantic/maintaining_a_car_semantic_6.png"" style=""width: 300px; height: auto;"">
          </div>
          <div style=""text-align: center; margin-left: 20px;"">
            <p style=""font-size: 24px; font-weight: bold;"">Event 2</p>
            <img src=""images/causal/maintaining_a_car_semantic/maintaining_a_car_semantic_7.png"" style=""width: 300px; height: auto;"">
          </div>
        </div>
        <p style=""text-align: center; margin-top: 20px;"">Did one event cause the other?</p>","2","6","7","true","maintaining_a_car_semantic"
"","","","","","html-button-response","70","621498","0.0-70.0","","7320","
        <div style=""display: flex; justify-content: center; align-items: center;"">
          <div style=""text-align: center; margin-right: 20px;"">
            <p style=""font-size: 24px; font-weight: bold;"">Event 1</p>
            <img src=""images/causal/physical_activity_semantic/physical_activity_semantic_6.png"" style=""width: 300px; height: auto;"">
          </div>
          <div style=""text-align: center; margin-left: 20px;"">
            <p style=""font-size: 24px; font-weight: bold;"">Event 2</p>
            <img src=""images/causal/physical_activity_semantic/physical_activity_semantic_ten.png"" style=""width: 300px; height: auto;"">
          </div>
        </div>
        <p style=""text-align: center; margin-top: 20px;"">Did one event cause the other?</p>","2","6","10","true","physical_activity_semantic"
"","","","","","html-button-response","71","648310","0.0-71.0","","26812","
        <div style=""display: flex; justify-content: center; align-items: center;"">
          <div style=""text-align: center; margin-right: 20px;"">
            <p style=""font-size: 24px; font-weight: bold;"">Event 1</p>
            <img src=""images/causal/interview_scheme/interview_scheme_ten.png"" style=""width: 300px; height: auto;"">
          </div>
          <div style=""text-align: center; margin-left: 20px;"">
            <p style=""font-size: 24px; font-weight: bold;"">Event 2</p>
            <img src=""images/causal/interview_scheme/interview_scheme_2.png"" style=""width: 300px; height: auto;"">
          </div>
        </div>
        <p style=""text-align: center; margin-top: 20px;"">Did one event cause the other?</p>","1","10","2","true","interview_scheme"
"","","","","","html-button-response","72","653704","0.0-72.0","","5393","
        <div style=""display: flex; justify-content: center; align-items: center;"">
          <div style=""text-align: center; margin-right: 20px;"">
            <p style=""font-size: 24px; font-weight: bold;"">Event 1</p>
            <img src=""images/causal/maintaining_a_car_semantic/maintaining_a_car_semantic_3.png"" style=""width: 300px; height: auto;"">
          </div>
          <div style=""text-align: center; margin-left: 20px;"">
            <p style=""font-size: 24px; font-weight: bold;"">Event 2</p>
            <img src=""images/causal/maintaining_a_car_semantic/maintaining_a_car_semantic_4.png"" style=""width: 300px; height: auto;"">
          </div>
        </div>
        <p style=""text-align: center; margin-top: 20px;"">Did one event cause the other?</p>","2","3","4","true","maintaining_a_car_semantic"
"","","","","","html-button-response","73","667873","0.0-73.0","","14168","
        <div style=""display: flex; justify-content: center; align-items: center;"">
          <div style=""text-align: center; margin-right: 20px;"">
            <p style=""font-size: 24px; font-weight: bold;"">Event 1</p>
            <img src=""images/causal/museum_causal/museum_causal_2.png"" style=""width: 300px; height: auto;"">
          </div>
          <div style=""text-align: center; margin-left: 20px;"">
            <p style=""font-size: 24px; font-weight: bold;"">Event 2</p>
            <img src=""images/causal/museum_causal/museum_causal_3.png"" style=""width: 300px; height: auto;"">
          </div>
        </div>
        <p style=""text-align: center; margin-top: 20px;"">Did one event cause the other?</p>","2","2","3","true","museum_causal"
"","","","","","html-button-response","74","682056","0.0-74.0","","14182","
        <div style=""display: flex; justify-content: center; align-items: center;"">
          <div style=""text-align: center; margin-right: 20px;"">
            <p style=""font-size: 24px; font-weight: bold;"">Event 1</p>
            <img src=""images/causal/interview_scheme/interview_scheme_9.png"" style=""width: 300px; height: auto;"">
          </div>
          <div style=""text-align: center; margin-left: 20px;"">
            <p style=""font-size: 24px; font-weight: bold;"">Event 2</p>
            <img src=""images/causal/interview_scheme/interview_scheme_1.png"" style=""width: 300px; height: auto;"">
          </div>
        </div>
        <p style=""text-align: center; margin-top: 20px;"">Did one event cause the other?</p>","2","9","1","true","interview_scheme"
"","","","","","html-button-response","75","687564","0.0-75.0","","5507","
        <div style=""display: flex; justify-content: center; align-items: center;"">
          <div style=""text-align: center; margin-right: 20px;"">
            <p style=""font-size: 24px; font-weight: bold;"">Event 1</p>
            <img src=""images/causal/museum_causal/museum_causal_2.png"" style=""width: 300px; height: auto;"">
          </div>
          <div style=""text-align: center; margin-left: 20px;"">
            <p style=""font-size: 24px; font-weight: bold;"">Event 2</p>
            <img src=""images/causal/museum_causal/museum_causal_ten.png"" style=""width: 300px; height: auto;"">
          </div>
        </div>
        <p style=""text-align: center; margin-top: 20px;"">Did one event cause the other?</p>","2","2","10","true","museum_causal"
"","","","","","html-button-response","76","692870","0.0-76.0","","5306","
        <div style=""display: flex; justify-content: center; align-items: center;"">
          <div style=""text-align: center; margin-right: 20px;"">
            <p style=""font-size: 24px; font-weight: bold;"">Event 1</p>
            <img src=""images/causal/maintaining_a_car_semantic/maintaining_a_car_semantic_ten.png"" style=""width: 300px; height: auto;"">
          </div>
          <div style=""text-align: center; margin-left: 20px;"">
            <p style=""font-size: 24px; font-weight: bold;"">Event 2</p>
            <img src=""images/causal/maintaining_a_car_semantic/maintaining_a_car_semantic_8.png"" style=""width: 300px; height: auto;"">
          </div>
        </div>
        <p style=""text-align: center; margin-top: 20px;"">Did one event cause the other?</p>","2","10","8","true","maintaining_a_car_semantic"
"","","","","","html-button-response","77","697895","0.0-77.0","","5025","
        <div style=""display: flex; justify-content: center; align-items: center;"">
          <div style=""text-align: center; margin-right: 20px;"">
            <p style=""font-size: 24px; font-weight: bold;"">Event 1</p>
            <img src=""images/causal/interview_scheme/interview_scheme_3.png"" style=""width: 300px; height: auto;"">
          </div>
          <div style=""text-align: center; margin-left: 20px;"">
            <p style=""font-size: 24px; font-weight: bold;"">Event 2</p>
            <img src=""images/causal/interview_scheme/interview_scheme_8.png"" style=""width: 300px; height: auto;"">
          </div>
        </div>
        <p style=""text-align: center; margin-top: 20px;"">Did one event cause the other?</p>","0","3","8","true","interview_scheme"
"","","","","","html-button-response","78","716670","0.0-78.0","","18774","
        <div style=""display: flex; justify-content: center; align-items: center;"">
          <div style=""text-align: center; margin-right: 20px;"">
            <p style=""font-size: 24px; font-weight: bold;"">Event 1</p>
            <img src=""images/causal/maintaining_a_car_semantic/maintaining_a_car_semantic_4.png"" style=""width: 300px; height: auto;"">
          </div>
          <div style=""text-align: center; margin-left: 20px;"">
            <p style=""font-size: 24px; font-weight: bold;"">Event 2</p>
            <img src=""images/causal/maintaining_a_car_semantic/maintaining_a_car_semantic_7.png"" style=""width: 300px; height: auto;"">
          </div>
        </div>
        <p style=""text-align: center; margin-top: 20px;"">Did one event cause the other?</p>","2","4","7","true","maintaining_a_car_semantic"
"","","","","","html-button-response","79","722616","0.0-79.0","","5945","
        <div style=""display: flex; justify-content: center; align-items: center;"">
          <div style=""text-align: center; margin-right: 20px;"">
            <p style=""font-size: 24px; font-weight: bold;"">Event 1</p>
            <img src=""images/causal/hotel_scheme/hotel_scheme_2.png"" style=""width: 300px; height: auto;"">
          </div>
          <div style=""text-align: center; margin-left: 20px;"">
            <p style=""font-size: 24px; font-weight: bold;"">Event 2</p>
            <img src=""images/causal/hotel_scheme/hotel_scheme_5.png"" style=""width: 300px; height: auto;"">
          </div>
        </div>
        <p style=""text-align: center; margin-top: 20px;"">Did one event cause the other?</p>","2","2","5","true","hotel_scheme"
"","","","","","html-button-response","80","727907","0.0-80.0","","5290","
        <div style=""display: flex; justify-content: center; align-items: center;"">
          <div style=""text-align: center; margin-right: 20px;"">
            <p style=""font-size: 24px; font-weight: bold;"">Event 1</p>
            <img src=""images/causal/package_causal/package_causal_8.png"" style=""width: 300px; height: auto;"">
          </div>
          <div style=""text-align: center; margin-left: 20px;"">
            <p style=""font-size: 24px; font-weight: bold;"">Event 2</p>
            <img src=""images/causal/package_causal/package_causal_1.png"" style=""width: 300px; height: auto;"">
          </div>
        </div>
        <p style=""text-align: center; margin-top: 20px;"">Did one event cause the other?</p>","2","8","1","true","package_causal"
"","","","","","html-button-response","81","733219","0.0-81.0","","5312","
        <div style=""display: flex; justify-content: center; align-items: center;"">
          <div style=""text-align: center; margin-right: 20px;"">
            <p style=""font-size: 24px; font-weight: bold;"">Event 1</p>
            <img src=""images/causal/interview_scheme/interview_scheme_2.png"" style=""width: 300px; height: auto;"">
          </div>
          <div style=""text-align: center; margin-left: 20px;"">
            <p style=""font-size: 24px; font-weight: bold;"">Event 2</p>
            <img src=""images/causal/interview_scheme/interview_scheme_3.png"" style=""width: 300px; height: auto;"">
          </div>
        </div>
        <p style=""text-align: center; margin-top: 20px;"">Did one event cause the other?</p>","0","2","3","true","interview_scheme"
"","","","","","html-button-response","82","738518","0.0-82.0","","5298","
        <div style=""display: flex; justify-content: center; align-items: center;"">
          <div style=""text-align: center; margin-right: 20px;"">
            <p style=""font-size: 24px; font-weight: bold;"">Event 1</p>
            <img src=""images/causal/museum_causal/museum_causal_5.png"" style=""width: 300px; height: auto;"">
          </div>
          <div style=""text-align: center; margin-left: 20px;"">
            <p style=""font-size: 24px; font-weight: bold;"">Event 2</p>
            <img src=""images/causal/museum_causal/museum_causal_1.png"" style=""width: 300px; height: auto;"">
          </div>
        </div>
        <p style=""text-align: center; margin-top: 20px;"">Did one event cause the other?</p>","2","5","1","true","museum_causal"
"","","","","","html-button-response","83","743917","0.0-83.0","","5398","
        <div style=""display: flex; justify-content: center; align-items: center;"">
          <div style=""text-align: center; margin-right: 20px;"">
            <p style=""font-size: 24px; font-weight: bold;"">Event 1</p>
            <img src=""images/causal/hotel_scheme/hotel_scheme_7.png"" style=""width: 300px; height: auto;"">
          </div>
          <div style=""text-align: center; margin-left: 20px;"">
            <p style=""font-size: 24px; font-weight: bold;"">Event 2</p>
            <img src=""images/causal/hotel_scheme/hotel_scheme_8.png"" style=""width: 300px; height: auto;"">
          </div>
        </div>
        <p style=""text-align: center; margin-top: 20px;"">Did one event cause the other?</p>","2","7","8","true","hotel_scheme"
"","","","","","html-button-response","84","749211","0.0-84.0","","5294","
        <div style=""display: flex; justify-content: center; align-items: center;"">
          <div style=""text-align: center; margin-right: 20px;"">
            <p style=""font-size: 24px; font-weight: bold;"">Event 1</p>
            <img src=""images/causal/physical_activity_semantic/physical_activity_semantic_5.png"" style=""width: 300px; height: auto;"">
          </div>
          <div style=""text-align: center; margin-left: 20px;"">
            <p style=""font-size: 24px; font-weight: bold;"">Event 2</p>
            <img src=""images/causal/physical_activity_semantic/physical_activity_semantic_4.png"" style=""width: 300px; height: auto;"">
          </div>
        </div>
        <p style=""text-align: center; margin-top: 20px;"">Did one event cause the other?</p>","2","5","4","true","physical_activity_semantic"
"","","","","","html-button-response","85","755145","0.0-85.0","","5933","
        <div style=""display: flex; justify-content: center; align-items: center;"">
          <div style=""text-align: center; margin-right: 20px;"">
            <p style=""font-size: 24px; font-weight: bold;"">Event 1</p>
            <img src=""images/causal/hotel_scheme/hotel_scheme_3.png"" style=""width: 300px; height: auto;"">
          </div>
          <div style=""text-align: center; margin-left: 20px;"">
            <p style=""font-size: 24px; font-weight: bold;"">Event 2</p>
            <img src=""images/causal/hotel_scheme/hotel_scheme_8.png"" style=""width: 300px; height: auto;"">
          </div>
        </div>
        <p style=""text-align: center; margin-top: 20px;"">Did one event cause the other?</p>","2","3","8","true","hotel_scheme"
"","","","","","html-button-response","86","760573","0.0-86.0","","5427","
        <div style=""display: flex; justify-content: center; align-items: center;"">
          <div style=""text-align: center; margin-right: 20px;"">
            <p style=""font-size: 24px; font-weight: bold;"">Event 1</p>
            <img src=""images/causal/package_causal/package_causal_ten.png"" style=""width: 300px; height: auto;"">
          </div>
          <div style=""text-align: center; margin-left: 20px;"">
            <p style=""font-size: 24px; font-weight: bold;"">Event 2</p>
            <img src=""images/causal/package_causal/package_causal_4.png"" style=""width: 300px; height: auto;"">
          </div>
        </div>
        <p style=""text-align: center; margin-top: 20px;"">Did one event cause the other?</p>","2","10","4","true","package_causal"
"","","","","","html-button-response","87","766213","0.0-87.0","","5640","
        <div style=""display: flex; justify-content: center; align-items: center;"">
          <div style=""text-align: center; margin-right: 20px;"">
            <p style=""font-size: 24px; font-weight: bold;"">Event 1</p>
            <img src=""images/causal/kitchen_operations_semantic/kitchen_operations_semantic_4.png"" style=""width: 300px; height: auto;"">
          </div>
          <div style=""text-align: center; margin-left: 20px;"">
            <p style=""font-size: 24px; font-weight: bold;"">Event 2</p>
            <img src=""images/causal/kitchen_operations_semantic/kitchen_operations_semantic_3.png"" style=""width: 300px; height: auto;"">
          </div>
        </div>
        <p style=""text-align: center; margin-top: 20px;"">Did one event cause the other?</p>","2","4","3","true","kitchen_operations_semantic"
"","","","","","html-button-response","88","772037","0.0-88.0","","5824","
        <div style=""display: flex; justify-content: center; align-items: center;"">
          <div style=""text-align: center; margin-right: 20px;"">
            <p style=""font-size: 24px; font-weight: bold;"">Event 1</p>
            <img src=""images/causal/hotel_scheme/hotel_scheme_ten.png"" style=""width: 300px; height: auto;"">
          </div>
          <div style=""text-align: center; margin-left: 20px;"">
            <p style=""font-size: 24px; font-weight: bold;"">Event 2</p>
            <img src=""images/causal/hotel_scheme/hotel_scheme_4.png"" style=""width: 300px; height: auto;"">
          </div>
        </div>
        <p style=""text-align: center; margin-top: 20px;"">Did one event cause the other?</p>","1","10","4","true","hotel_scheme"
"","","","","","html-button-response","89","777386","0.0-89.0","","5348","
        <div style=""display: flex; justify-content: center; align-items: center;"">
          <div style=""text-align: center; margin-right: 20px;"">
            <p style=""font-size: 24px; font-weight: bold;"">Event 1</p>
            <img src=""images/causal/hotel_scheme/hotel_scheme_3.png"" style=""width: 300px; height: auto;"">
          </div>
          <div style=""text-align: center; margin-left: 20px;"">
            <p style=""font-size: 24px; font-weight: bold;"">Event 2</p>
            <img src=""images/causal/hotel_scheme/hotel_scheme_ten.png"" style=""width: 300px; height: auto;"">
          </div>
        </div>
        <p style=""text-align: center; margin-top: 20px;"">Did one event cause the other?</p>","0","3","10","true","hotel_scheme"
"","","","","","html-button-response","90","782687","0.0-90.0","","5301","
        <div style=""display: flex; justify-content: center; align-items: center;"">
          <div style=""text-align: center; margin-right: 20px;"">
            <p style=""font-size: 24px; font-weight: bold;"">Event 1</p>
            <img src=""images/causal/interview_scheme/interview_scheme_7.png"" style=""width: 300px; height: auto;"">
          </div>
          <div style=""text-align: center; margin-left: 20px;"">
            <p style=""font-size: 24px; font-weight: bold;"">Event 2</p>
            <img src=""images/causal/interview_scheme/interview_scheme_4.png"" style=""width: 300px; height: auto;"">
          </div>
        </div>
        <p style=""text-align: center; margin-top: 20px;"">Did one event cause the other?</p>","2","7","4","true","interview_scheme"
"","","","","","html-button-response","91","788019","0.0-91.0","","5331","
        <div style=""display: flex; justify-content: center; align-items: center;"">
          <div style=""text-align: center; margin-right: 20px;"">
            <p style=""font-size: 24px; font-weight: bold;"">Event 1</p>
            <img src=""images/causal/maintaining_a_car_semantic/maintaining_a_car_semantic_7.png"" style=""width: 300px; height: auto;"">
          </div>
          <div style=""text-align: center; margin-left: 20px;"">
            <p style=""font-size: 24px; font-weight: bold;"">Event 2</p>
            <img src=""images/causal/maintaining_a_car_semantic/maintaining_a_car_semantic_8.png"" style=""width: 300px; height: auto;"">
          </div>
        </div>
        <p style=""text-align: center; margin-top: 20px;"">Did one event cause the other?</p>","2","7","8","true","maintaining_a_car_semantic"
"","","","","","html-button-response","92","793728","0.0-92.0","","5709","
        <div style=""display: flex; justify-content: center; align-items: center;"">
          <div style=""text-align: center; margin-right: 20px;"">
            <p style=""font-size: 24px; font-weight: bold;"">Event 1</p>
            <img src=""images/causal/museum_causal/museum_causal_6.png"" style=""width: 300px; height: auto;"">
          </div>
          <div style=""text-align: center; margin-left: 20px;"">
            <p style=""font-size: 24px; font-weight: bold;"">Event 2</p>
            <img src=""images/causal/museum_causal/museum_causal_4.png"" style=""width: 300px; height: auto;"">
          </div>
        </div>
        <p style=""text-align: center; margin-top: 20px;"">Did one event cause the other?</p>","2","6","4","true","museum_causal"
"","","","","","html-button-response","93","800410","0.0-93.0","","6681","
        <div style=""display: flex; justify-content: center; align-items: center;"">
          <div style=""text-align: center; margin-right: 20px;"">
            <p style=""font-size: 24px; font-weight: bold;"">Event 1</p>
            <img src=""images/causal/package_causal/package_causal_1.png"" style=""width: 300px; height: auto;"">
          </div>
          <div style=""text-align: center; margin-left: 20px;"">
            <p style=""font-size: 24px; font-weight: bold;"">Event 2</p>
            <img src=""images/causal/package_causal/package_causal_7.png"" style=""width: 300px; height: auto;"">
          </div>
        </div>
        <p style=""text-align: center; margin-top: 20px;"">Did one event cause the other?</p>","2","1","7","true","package_causal"
"","","","","","html-button-response","94","817036","0.0-94.0","","16626","
        <div style=""display: flex; justify-content: center; align-items: center;"">
          <div style=""text-align: center; margin-right: 20px;"">
            <p style=""font-size: 24px; font-weight: bold;"">Event 1</p>
            <img src=""images/causal/museum_causal/museum_causal_8.png"" style=""width: 300px; height: auto;"">
          </div>
          <div style=""text-align: center; margin-left: 20px;"">
            <p style=""font-size: 24px; font-weight: bold;"">Event 2</p>
            <img src=""images/causal/museum_causal/museum_causal_1.png"" style=""width: 300px; height: auto;"">
          </div>
        </div>
        <p style=""text-align: center; margin-top: 20px;"">Did one event cause the other?</p>","2","8","1","true","museum_causal"
"","","","","","html-button-response","95","822546","0.0-95.0","","5509","
        <div style=""display: flex; justify-content: center; align-items: center;"">
          <div style=""text-align: center; margin-right: 20px;"">
            <p style=""font-size: 24px; font-weight: bold;"">Event 1</p>
            <img src=""images/causal/physical_activity_semantic/physical_activity_semantic_3.png"" style=""width: 300px; height: auto;"">
          </div>
          <div style=""text-align: center; margin-left: 20px;"">
            <p style=""font-size: 24px; font-weight: bold;"">Event 2</p>
            <img src=""images/causal/physical_activity_semantic/physical_activity_semantic_ten.png"" style=""width: 300px; height: auto;"">
          </div>
        </div>
        <p style=""text-align: center; margin-top: 20px;"">Did one event cause the other?</p>","2","3","10","true","physical_activity_semantic"
"","","","","","html-button-response","96","828170","0.0-96.0","","5623","
        <div style=""display: flex; justify-content: center; align-items: center;"">
          <div style=""text-align: center; margin-right: 20px;"">
            <p style=""font-size: 24px; font-weight: bold;"">Event 1</p>
            <img src=""images/causal/interview_scheme/interview_scheme_ten.png"" style=""width: 300px; height: auto;"">
          </div>
          <div style=""text-align: center; margin-left: 20px;"">
            <p style=""font-size: 24px; font-weight: bold;"">Event 2</p>
            <img src=""images/causal/interview_scheme/interview_scheme_1.png"" style=""width: 300px; height: auto;"">
          </div>
        </div>
        <p style=""text-align: center; margin-top: 20px;"">Did one event cause the other?</p>","1","10","1","true","interview_scheme"
"","","","","","html-button-response","97","833484","0.0-97.0","","5313","
        <div style=""display: flex; justify-content: center; align-items: center;"">
          <div style=""text-align: center; margin-right: 20px;"">
            <p style=""font-size: 24px; font-weight: bold;"">Event 1</p>
            <img src=""images/causal/physical_activity_semantic/physical_activity_semantic_8.png"" style=""width: 300px; height: auto;"">
          </div>
          <div style=""text-align: center; margin-left: 20px;"">
            <p style=""font-size: 24px; font-weight: bold;"">Event 2</p>
            <img src=""images/causal/physical_activity_semantic/physical_activity_semantic_9.png"" style=""width: 300px; height: auto;"">
          </div>
        </div>
        <p style=""text-align: center; margin-top: 20px;"">Did one event cause the other?</p>","2","8","9","true","physical_activity_semantic"
"","","","","","html-button-response","98","842135","0.0-98.0","","8650","
        <div style=""display: flex; justify-content: center; align-items: center;"">
          <div style=""text-align: center; margin-right: 20px;"">
            <p style=""font-size: 24px; font-weight: bold;"">Event 1</p>
            <img src=""images/causal/hotel_scheme/hotel_scheme_4.png"" style=""width: 300px; height: auto;"">
          </div>
          <div style=""text-align: center; margin-left: 20px;"">
            <p style=""font-size: 24px; font-weight: bold;"">Event 2</p>
            <img src=""images/causal/hotel_scheme/hotel_scheme_6.png"" style=""width: 300px; height: auto;"">
          </div>
        </div>
        <p style=""text-align: center; margin-top: 20px;"">Did one event cause the other?</p>","2","4","6","true","hotel_scheme"
"","","","","","html-button-response","99","847460","0.0-99.0","","5325","
        <div style=""display: flex; justify-content: center; align-items: center;"">
          <div style=""text-align: center; margin-right: 20px;"">
            <p style=""font-size: 24px; font-weight: bold;"">Event 1</p>
            <img src=""images/causal/market_semantic/market_semantic_3.png"" style=""width: 300px; height: auto;"">
          </div>
          <div style=""text-align: center; margin-left: 20px;"">
            <p style=""font-size: 24px; font-weight: bold;"">Event 2</p>
            <img src=""images/causal/market_semantic/market_semantic_4.png"" style=""width: 300px; height: auto;"">
          </div>
        </div>
        <p style=""text-align: center; margin-top: 20px;"">Did one event cause the other?</p>","2","3","4","true","market_semantic"
"","","","","","html-button-response","100","853102","0.0-100.0","","5641","
        <div style=""display: flex; justify-content: center; align-items: center;"">
          <div style=""text-align: center; margin-right: 20px;"">
            <p style=""font-size: 24px; font-weight: bold;"">Event 1</p>
            <img src=""images/causal/maintaining_a_car_semantic/maintaining_a_car_semantic_6.png"" style=""width: 300px; height: auto;"">
          </div>
          <div style=""text-align: center; margin-left: 20px;"">
            <p style=""font-size: 24px; font-weight: bold;"">Event 2</p>
            <img src=""images/causal/maintaining_a_car_semantic/maintaining_a_car_semantic_5.png"" style=""width: 300px; height: auto;"">
          </div>
        </div>
        <p style=""text-align: center; margin-top: 20px;"">Did one event cause the other?</p>","2","6","5","true","maintaining_a_car_semantic"
"","","","","","html-button-response","101","858464","0.0-101.0","","5361","
        <div style=""display: flex; justify-content: center; align-items: center;"">
          <div style=""text-align: center; margin-right: 20px;"">
            <p style=""font-size: 24px; font-weight: bold;"">Event 1</p>
            <img src=""images/causal/museum_causal/museum_causal_7.png"" style=""width: 300px; height: auto;"">
          </div>
          <div style=""text-align: center; margin-left: 20px;"">
            <p style=""font-size: 24px; font-weight: bold;"">Event 2</p>
            <img src=""images/causal/museum_causal/museum_causal_5.png"" style=""width: 300px; height: auto;"">
          </div>
        </div>
        <p style=""text-align: center; margin-top: 20px;"">Did one event cause the other?</p>","2","7","5","true","museum_causal"
"","","","","","html-button-response","102","863814","0.0-102.0","","5350","
        <div style=""display: flex; justify-content: center; align-items: center;"">
          <div style=""text-align: center; margin-right: 20px;"">
            <p style=""font-size: 24px; font-weight: bold;"">Event 1</p>
            <img src=""images/causal/physical_activity_semantic/physical_activity_semantic_1.png"" style=""width: 300px; height: auto;"">
          </div>
          <div style=""text-align: center; margin-left: 20px;"">
            <p style=""font-size: 24px; font-weight: bold;"">Event 2</p>
            <img src=""images/causal/physical_activity_semantic/physical_activity_semantic_7.png"" style=""width: 300px; height: auto;"">
          </div>
        </div>
        <p style=""text-align: center; margin-top: 20px;"">Did one event cause the other?</p>","2","1","7","true","physical_activity_semantic"
"","","","","","html-button-response","103","869176","0.0-103.0","","5361","
        <div style=""display: flex; justify-content: center; align-items: center;"">
          <div style=""text-align: center; margin-right: 20px;"">
            <p style=""font-size: 24px; font-weight: bold;"">Event 1</p>
            <img src=""images/causal/kitchen_operations_semantic/kitchen_operations_semantic_9.png"" style=""width: 300px; height: auto;"">
          </div>
          <div style=""text-align: center; margin-left: 20px;"">
            <p style=""font-size: 24px; font-weight: bold;"">Event 2</p>
            <img src=""images/causal/kitchen_operations_semantic/kitchen_operations_semantic_4.png"" style=""width: 300px; height: auto;"">
          </div>
        </div>
        <p style=""text-align: center; margin-top: 20px;"">Did one event cause the other?</p>","2","9","4","true","kitchen_operations_semantic"
"","","","","","html-button-response","104","875012","0.0-104.0","","5836","
        <div style=""display: flex; justify-content: center; align-items: center;"">
          <div style=""text-align: center; margin-right: 20px;"">
            <p style=""font-size: 24px; font-weight: bold;"">Event 1</p>
            <img src=""images/causal/market_semantic/market_semantic_1.png"" style=""width: 300px; height: auto;"">
          </div>
          <div style=""text-align: center; margin-left: 20px;"">
            <p style=""font-size: 24px; font-weight: bold;"">Event 2</p>
            <img src=""images/causal/market_semantic/market_semantic_8.png"" style=""width: 300px; height: auto;"">
          </div>
        </div>
        <p style=""text-align: center; margin-top: 20px;"">Did one event cause the other?</p>","2","1","8","true","market_semantic"
"","","","","","html-button-response","105","880832","0.0-105.0","","5819","
        <div style=""display: flex; justify-content: center; align-items: center;"">
          <div style=""text-align: center; margin-right: 20px;"">
            <p style=""font-size: 24px; font-weight: bold;"">Event 1</p>
            <img src=""images/causal/physical_activity_semantic/physical_activity_semantic_7.png"" style=""width: 300px; height: auto;"">
          </div>
          <div style=""text-align: center; margin-left: 20px;"">
            <p style=""font-size: 24px; font-weight: bold;"">Event 2</p>
            <img src=""images/causal/physical_activity_semantic/physical_activity_semantic_5.png"" style=""width: 300px; height: auto;"">
          </div>
        </div>
        <p style=""text-align: center; margin-top: 20px;"">Did one event cause the other?</p>","2","7","5","true","physical_activity_semantic"
"","","","","","html-button-response","106","886521","0.0-106.0","","5688","
        <div style=""display: flex; justify-content: center; align-items: center;"">
          <div style=""text-align: center; margin-right: 20px;"">
            <p style=""font-size: 24px; font-weight: bold;"">Event 1</p>
            <img src=""images/causal/maintaining_a_car_semantic/maintaining_a_car_semantic_7.png"" style=""width: 300px; height: auto;"">
          </div>
          <div style=""text-align: center; margin-left: 20px;"">
            <p style=""font-size: 24px; font-weight: bold;"">Event 2</p>
            <img src=""images/causal/maintaining_a_car_semantic/maintaining_a_car_semantic_5.png"" style=""width: 300px; height: auto;"">
          </div>
        </div>
        <p style=""text-align: center; margin-top: 20px;"">Did one event cause the other?</p>","2","7","5","true","maintaining_a_car_semantic"
"","","","","","html-button-response","107","891878","0.0-107.0","","5356","
        <div style=""display: flex; justify-content: center; align-items: center;"">
          <div style=""text-align: center; margin-right: 20px;"">
            <p style=""font-size: 24px; font-weight: bold;"">Event 1</p>
            <img src=""images/causal/hotel_scheme/hotel_scheme_6.png"" style=""width: 300px; height: auto;"">
          </div>
          <div style=""text-align: center; margin-left: 20px;"">
            <p style=""font-size: 24px; font-weight: bold;"">Event 2</p>
            <img src=""images/causal/hotel_scheme/hotel_scheme_7.png"" style=""width: 300px; height: auto;"">
          </div>
        </div>
        <p style=""text-align: center; margin-top: 20px;"">Did one event cause the other?</p>","2","6","7","true","hotel_scheme"
"","","","","","html-button-response","108","897441","0.0-108.0","","5562","
        <div style=""display: flex; justify-content: center; align-items: center;"">
          <div style=""text-align: center; margin-right: 20px;"">
            <p style=""font-size: 24px; font-weight: bold;"">Event 1</p>
            <img src=""images/causal/kitchen_operations_semantic/kitchen_operations_semantic_2.png"" style=""width: 300px; height: auto;"">
          </div>
          <div style=""text-align: center; margin-left: 20px;"">
            <p style=""font-size: 24px; font-weight: bold;"">Event 2</p>
            <img src=""images/causal/kitchen_operations_semantic/kitchen_operations_semantic_7.png"" style=""width: 300px; height: auto;"">
          </div>
        </div>
        <p style=""text-align: center; margin-top: 20px;"">Did one event cause the other?</p>","2","2","7","true","kitchen_operations_semantic"
"","","","","","html-button-response","109","902826","0.0-109.0","","5384","
        <div style=""display: flex; justify-content: center; align-items: center;"">
          <div style=""text-align: center; margin-right: 20px;"">
            <p style=""font-size: 24px; font-weight: bold;"">Event 1</p>
            <img src=""images/causal/hotel_scheme/hotel_scheme_6.png"" style=""width: 300px; height: auto;"">
          </div>
          <div style=""text-align: center; margin-left: 20px;"">
            <p style=""font-size: 24px; font-weight: bold;"">Event 2</p>
            <img src=""images/causal/hotel_scheme/hotel_scheme_ten.png"" style=""width: 300px; height: auto;"">
          </div>
        </div>
        <p style=""text-align: center; margin-top: 20px;"">Did one event cause the other?</p>","2","6","10","true","hotel_scheme"
"","","","","","html-button-response","110","908941","0.0-110.0","","6114","
        <div style=""display: flex; justify-content: center; align-items: center;"">
          <div style=""text-align: center; margin-right: 20px;"">
            <p style=""font-size: 24px; font-weight: bold;"">Event 1</p>
            <img src=""images/causal/interview_scheme/interview_scheme_1.png"" style=""width: 300px; height: auto;"">
          </div>
          <div style=""text-align: center; margin-left: 20px;"">
            <p style=""font-size: 24px; font-weight: bold;"">Event 2</p>
            <img src=""images/causal/interview_scheme/interview_scheme_7.png"" style=""width: 300px; height: auto;"">
          </div>
        </div>
        <p style=""text-align: center; margin-top: 20px;"">Did one event cause the other?</p>","0","1","7","true","interview_scheme"
"","","","","","html-button-response","111","918262","0.0-111.0","","9321","
        <div style=""display: flex; justify-content: center; align-items: center;"">
          <div style=""text-align: center; margin-right: 20px;"">
            <p style=""font-size: 24px; font-weight: bold;"">Event 1</p>
            <img src=""images/causal/hotel_scheme/hotel_scheme_4.png"" style=""width: 300px; height: auto;"">
          </div>
          <div style=""text-align: center; margin-left: 20px;"">
            <p style=""font-size: 24px; font-weight: bold;"">Event 2</p>
            <img src=""images/causal/hotel_scheme/hotel_scheme_3.png"" style=""width: 300px; height: auto;"">
          </div>
        </div>
        <p style=""text-align: center; margin-top: 20px;"">Did one event cause the other?</p>","1","4","3","true","hotel_scheme"
"","","","","","html-button-response","112","927897","0.0-112.0","","9634","
        <div style=""display: flex; justify-content: center; align-items: center;"">
          <div style=""text-align: center; margin-right: 20px;"">
            <p style=""font-size: 24px; font-weight: bold;"">Event 1</p>
            <img src=""images/causal/package_causal/package_causal_5.png"" style=""width: 300px; height: auto;"">
          </div>
          <div style=""text-align: center; margin-left: 20px;"">
            <p style=""font-size: 24px; font-weight: bold;"">Event 2</p>
            <img src=""images/causal/package_causal/package_causal_4.png"" style=""width: 300px; height: auto;"">
          </div>
        </div>
        <p style=""text-align: center; margin-top: 20px;"">Did one event cause the other?</p>","1","5","4","true","package_causal"
"","","","","","html-button-response","113","933304","0.0-113.0","","5406","
        <div style=""display: flex; justify-content: center; align-items: center;"">
          <div style=""text-align: center; margin-right: 20px;"">
            <p style=""font-size: 24px; font-weight: bold;"">Event 1</p>
            <img src=""images/causal/kitchen_operations_semantic/kitchen_operations_semantic_3.png"" style=""width: 300px; height: auto;"">
          </div>
          <div style=""text-align: center; margin-left: 20px;"">
            <p style=""font-size: 24px; font-weight: bold;"">Event 2</p>
            <img src=""images/causal/kitchen_operations_semantic/kitchen_operations_semantic_5.png"" style=""width: 300px; height: auto;"">
          </div>
        </div>
        <p style=""text-align: center; margin-top: 20px;"">Did one event cause the other?</p>","2","3","5","true","kitchen_operations_semantic"
"","","","","","html-button-response","114","942582","0.0-114.0","","9277","
        <div style=""display: flex; justify-content: center; align-items: center;"">
          <div style=""text-align: center; margin-right: 20px;"">
            <p style=""font-size: 24px; font-weight: bold;"">Event 1</p>
            <img src=""images/causal/interview_scheme/interview_scheme_ten.png"" style=""width: 300px; height: auto;"">
          </div>
          <div style=""text-align: center; margin-left: 20px;"">
            <p style=""font-size: 24px; font-weight: bold;"">Event 2</p>
            <img src=""images/causal/interview_scheme/interview_scheme_6.png"" style=""width: 300px; height: auto;"">
          </div>
        </div>
        <p style=""text-align: center; margin-top: 20px;"">Did one event cause the other?</p>","2","10","6","true","interview_scheme"
"","","","","","html-button-response","115","948003","0.0-115.0","","5420","
        <div style=""display: flex; justify-content: center; align-items: center;"">
          <div style=""text-align: center; margin-right: 20px;"">
            <p style=""font-size: 24px; font-weight: bold;"">Event 1</p>
            <img src=""images/causal/interview_scheme/interview_scheme_1.png"" style=""width: 300px; height: auto;"">
          </div>
          <div style=""text-align: center; margin-left: 20px;"">
            <p style=""font-size: 24px; font-weight: bold;"">Event 2</p>
            <img src=""images/causal/interview_scheme/interview_scheme_8.png"" style=""width: 300px; height: auto;"">
          </div>
        </div>
        <p style=""text-align: center; margin-top: 20px;"">Did one event cause the other?</p>","0","1","8","true","interview_scheme"
"","","","","","html-button-response","116","954256","0.0-116.0","","6253","
        <div style=""display: flex; justify-content: center; align-items: center;"">
          <div style=""text-align: center; margin-right: 20px;"">
            <p style=""font-size: 24px; font-weight: bold;"">Event 1</p>
            <img src=""images/causal/market_semantic/market_semantic_4.png"" style=""width: 300px; height: auto;"">
          </div>
          <div style=""text-align: center; margin-left: 20px;"">
            <p style=""font-size: 24px; font-weight: bold;"">Event 2</p>
            <img src=""images/causal/market_semantic/market_semantic_2.png"" style=""width: 300px; height: auto;"">
          </div>
        </div>
        <p style=""text-align: center; margin-top: 20px;"">Did one event cause the other?</p>","0","4","2","true","market_semantic"
"","","","","","html-button-response","117","964063","0.0-117.0","","9807","
        <div style=""display: flex; justify-content: center; align-items: center;"">
          <div style=""text-align: center; margin-right: 20px;"">
            <p style=""font-size: 24px; font-weight: bold;"">Event 1</p>
            <img src=""images/causal/hotel_scheme/hotel_scheme_8.png"" style=""width: 300px; height: auto;"">
          </div>
          <div style=""text-align: center; margin-left: 20px;"">
            <p style=""font-size: 24px; font-weight: bold;"">Event 2</p>
            <img src=""images/causal/hotel_scheme/hotel_scheme_ten.png"" style=""width: 300px; height: auto;"">
          </div>
        </div>
