"success","timeout","failed_images","failed_audio","failed_video","trial_type","trial_index","time_elapsed","internal_node_id","view_history","rt","stimulus","response","firstImageNumber","secondImageNumber","response_made","stimulus_type"
"true","false","[]","[]","[]","preload","0","411","0.0-0.0","","","","","","","",""
"","","","","","instructions","1","425580","0.0-1.0","[{""page_index"":0,""viewing_time"":425167}]","425168","","","","","",""
"","","","","","html-button-response","2","431923","0.0-2.0","","6342","
        <div style=""display: flex; justify-content: center; align-items: center;"">
          <div style=""text-align: center; margin-right: 20px;"">
            <p style=""font-size: 24px; font-weight: bold;"">Event 1<p>
            <img src=""images/instructions/1.png"" style=""width: 300px; height: auto;"">
          </div>
          <div style=""text-align: center; margin-left: 20px;"">
            <p style=""font-size: 24px; font-weight: bold;"">Event 2</p>
            <img src=""images/instructions/2.png"" style=""width: 300px; height: auto;"">
          </div>
        </div>
        <p style=""text-align: center; margin-top: 20px;"">Did one event cause the other?</p>","0","","","",""
"","","","","","html-button-response","3","434014","0.0-3.0","","2090","
        <div style=""display: flex; justify-content: center; align-items: center;"">
          <div style=""text-align: center; margin-right: 20px;"">
            <p style=""font-size: 24px; font-weight: bold;"">Event 1<p>
            <img src=""images/instructions/1.png"" style=""width: 300px; height: auto;"">
          </div>
          <div style=""text-align: center; margin-left: 20px;"">
            <p style=""font-size: 24px; font-weight: bold;"">Event 2</p>
            <img src=""images/instructions/2.png"" style=""width: 300px; height: auto;"">
          </div>
        </div>
        <h2>Correct Answer</h2>
        <p>The correct answer is: <strong>event 1 causes event 2</strong>.</p>
        <p>Click ""Next"" to proceed to the next example.</p>","0","","","",""
"","","","","","html-button-response","4","439793","0.0-4.0","","5778","
   <div style=""display: flex; justify-content: center; align-items: center;"">
          <div style=""text-align: center; margin-right: 20px;"">
            <p style=""font-size: 24px; font-weight: bold;"">Event 1<p>
            <img src=""images/instructions/2.png"" style=""width: 300px; height: auto;"">
          </div>
          <div style=""text-align: center; margin-left: 20px;"">
            <p style=""font-size: 24px; font-weight: bold;"">Event 2</p>
            <img src=""images/instructions/1.png"" style=""width: 300px; height: auto;"">
          </div>
        </div>
        <p style=""text-align: center; margin-top: 20px;"">Did one event cause the other?</p>","1","","","",""
"","","","","","html-button-response","5","441337","0.0-5.0","","1542","
        <div style=""display: flex; justify-content: center; align-items: center;"">
          <div style=""text-align: center; margin-right: 20px;"">
            <p style=""font-size: 24px; font-weight: bold;"">Event 1<p>
            <img src=""images/instructions/2.png"" style=""width: 300px; height: auto;"">
          </div>
          <div style=""text-align: center; margin-left: 20px;"">
            <p style=""font-size: 24px; font-weight: bold;"">Event 2</p>
            <img src=""images/instructions/1.png"" style=""width: 300px; height: auto;"">
          </div>
        </div>
        <h2>Correct Answer</h2>
        <p>The correct answer is: <strong>event 2 causes event 1</strong>.</p>
        <p>Click ""Next"" to proceed to the next example.</p>","0","","","",""
"","","","","","html-button-response","6","447117","0.0-6.0","","5779","
        <div style=""display: flex; justify-content: center; align-items: center;"">
          <div style=""text-align: center; margin-right: 20px;"">
            <p style=""font-size: 24px; font-weight: bold;"">Event 1<p>
            <img src=""images/instructions/5.png"" style=""width: 300px; height: auto;"">
          </div>
          <div style=""text-align: center; margin-left: 20px;"">
            <p style=""font-size: 24px; font-weight: bold;"">Event 2</p>
            <img src=""images/instructions/6.png"" style=""width: 300px; height: auto;"">
          </div>
        </div>
        <p style=""text-align: center; margin-top: 20px;"">Did one event cause the other?</p>","2","","","",""
"","","","","","html-button-response","7","448666","0.0-7.0","","1547","
        <div style=""display: flex; justify-content: center; align-items: center;"">
          <div style=""text-align: center; margin-right: 20px;"">
            <p style=""font-size: 24px; font-weight: bold;"">Event 1<p>
            <img src=""images/instructions/5.png"" style=""width: 300px; height: auto;"">
          </div>
          <div style=""text-align: center; margin-left: 20px;"">
            <p style=""font-size: 24px; font-weight: bold;"">Event 2</p>
            <img src=""images/instructions/6.png"" style=""width: 300px; height: auto;"">
          </div>
        </div>
        <h2>Correct Answer</h2>
        <p>The correct answer is: <strong>events are unrelated</strong>.</p>
        <p>Click ""Next"" to proceed to the experiment.</p>","0","","","",""
"","","","","","html-button-response","8","452812","0.0-8.0","","4145","
        <h2>Get Ready!</h2>
        <p>You have completed the examples. The experiment is about to begin.</p>
        <p>Click ""Start"" to begin the experiment.</p>","0","","","",""
"","","","","","html-button-response","9","459448","0.0-9.0","","6634","
        <div style=""display: flex; justify-content: center; align-items: center;"">
          <div style=""text-align: center; margin-right: 20px;"">
            <p style=""font-size: 24px; font-weight: bold;"">Event 1</p>
            <img src=""images/causal/using_technology_semantic/using_technology_semantic_4.png"" style=""width: 300px; height: auto;"">
          </div>
          <div style=""text-align: center; margin-left: 20px;"">
            <p style=""font-size: 24px; font-weight: bold;"">Event 2</p>
            <img src=""images/causal/using_technology_semantic/using_technology_semantic_2.png"" style=""width: 300px; height: auto;"">
          </div>
        </div>
        <p style=""text-align: center; margin-top: 20px;"">Did one event cause the other?</p>","2","4","2","true","using_technology_semantic"
"","","","","","html-button-response","10","466634","0.0-10.0","","7185","
        <div style=""display: flex; justify-content: center; align-items: center;"">
          <div style=""text-align: center; margin-right: 20px;"">
            <p style=""font-size: 24px; font-weight: bold;"">Event 1</p>
            <img src=""images/causal/saving_a_cat_causal/saving_a_cat_causal_6.png"" style=""width: 300px; height: auto;"">
          </div>
          <div style=""text-align: center; margin-left: 20px;"">
            <p style=""font-size: 24px; font-weight: bold;"">Event 2</p>
            <img src=""images/causal/saving_a_cat_causal/saving_a_cat_causal_2.png"" style=""width: 300px; height: auto;"">
          </div>
        </div>
        <p style=""text-align: center; margin-top: 20px;"">Did one event cause the other?</p>","1","6","2","true","saving_a_cat_causal"
"","","","","","html-button-response","11","472360","0.0-11.0","","5725","
        <div style=""display: flex; justify-content: center; align-items: center;"">
          <div style=""text-align: center; margin-right: 20px;"">
            <p style=""font-size: 24px; font-weight: bold;"">Event 1</p>
            <img src=""images/causal/using_technology_semantic/using_technology_semantic_1.png"" style=""width: 300px; height: auto;"">
          </div>
          <div style=""text-align: center; margin-left: 20px;"">
            <p style=""font-size: 24px; font-weight: bold;"">Event 2</p>
            <img src=""images/causal/using_technology_semantic/using_technology_semantic_3.png"" style=""width: 300px; height: auto;"">
          </div>
        </div>
        <p style=""text-align: center; margin-top: 20px;"">Did one event cause the other?</p>","2","1","3","true","using_technology_semantic"
"","","","","","html-button-response","12","478545","0.0-12.0","","6184","
        <div style=""display: flex; justify-content: center; align-items: center;"">
          <div style=""text-align: center; margin-right: 20px;"">
            <p style=""font-size: 24px; font-weight: bold;"">Event 1</p>
            <img src=""images/causal/redecorating_a_house_semantic/redecorating_a_house_semantic_5.png"" style=""width: 300px; height: auto;"">
          </div>
          <div style=""text-align: center; margin-left: 20px;"">
            <p style=""font-size: 24px; font-weight: bold;"">Event 2</p>
            <img src=""images/causal/redecorating_a_house_semantic/redecorating_a_house_semantic_ten.png"" style=""width: 300px; height: auto;"">
          </div>
        </div>
        <p style=""text-align: center; margin-top: 20px;"">Did one event cause the other?</p>","2","5","10","true","redecorating_a_house_semantic"
"","","","","","html-button-response","13","485310","0.0-13.0","","6764","
        <div style=""display: flex; justify-content: center; align-items: center;"">
          <div style=""text-align: center; margin-right: 20px;"">
            <p style=""font-size: 24px; font-weight: bold;"">Event 1</p>
            <img src=""images/causal/restaurant_scheme/restaurant_scheme_5.png"" style=""width: 300px; height: auto;"">
          </div>
          <div style=""text-align: center; margin-left: 20px;"">
            <p style=""font-size: 24px; font-weight: bold;"">Event 2</p>
            <img src=""images/causal/restaurant_scheme/restaurant_scheme_3.png"" style=""width: 300px; height: auto;"">
          </div>
        </div>
        <p style=""text-align: center; margin-top: 20px;"">Did one event cause the other?</p>","1","5","3","true","restaurant_scheme"
"","","","","","html-button-response","14","497787","0.0-14.0","","12476","
        <div style=""display: flex; justify-content: center; align-items: center;"">
          <div style=""text-align: center; margin-right: 20px;"">
            <p style=""font-size: 24px; font-weight: bold;"">Event 1</p>
            <img src=""images/causal/using_technology_semantic/using_technology_semantic_ten.png"" style=""width: 300px; height: auto;"">
          </div>
          <div style=""text-align: center; margin-left: 20px;"">
            <p style=""font-size: 24px; font-weight: bold;"">Event 2</p>
            <img src=""images/causal/using_technology_semantic/using_technology_semantic_2.png"" style=""width: 300px; height: auto;"">
          </div>
        </div>
        <p style=""text-align: center; margin-top: 20px;"">Did one event cause the other?</p>","2","10","2","true","using_technology_semantic"
"","","","","","html-button-response","15","503477","0.0-15.0","","5689","
        <div style=""display: flex; justify-content: center; align-items: center;"">
          <div style=""text-align: center; margin-right: 20px;"">
            <p style=""font-size: 24px; font-weight: bold;"">Event 1</p>
            <img src=""images/causal/visiting_cities_semantic/visiting_cities_semantic_8.png"" style=""width: 300px; height: auto;"">
          </div>
          <div style=""text-align: center; margin-left: 20px;"">
            <p style=""font-size: 24px; font-weight: bold;"">Event 2</p>
            <img src=""images/causal/visiting_cities_semantic/visiting_cities_semantic_1.png"" style=""width: 300px; height: auto;"">
          </div>
        </div>
        <p style=""text-align: center; margin-top: 20px;"">Did one event cause the other?</p>","2","8","1","true","visiting_cities_semantic"
"","","","","","html-button-response","16","531686","0.0-16.0","","28208","
        <div style=""display: flex; justify-content: center; align-items: center;"">
          <div style=""text-align: center; margin-right: 20px;"">
            <p style=""font-size: 24px; font-weight: bold;"">Event 1</p>
            <img src=""images/causal/visiting_cities_semantic/visiting_cities_semantic_7.png"" style=""width: 300px; height: auto;"">
          </div>
          <div style=""text-align: center; margin-left: 20px;"">
            <p style=""font-size: 24px; font-weight: bold;"">Event 2</p>
            <img src=""images/causal/visiting_cities_semantic/visiting_cities_semantic_1.png"" style=""width: 300px; height: auto;"">
          </div>
        </div>
        <p style=""text-align: center; margin-top: 20px;"">Did one event cause the other?</p>","2","7","1","true","visiting_cities_semantic"
"","","","","","html-button-response","17","537540","0.0-17.0","","5854","
        <div style=""display: flex; justify-content: center; align-items: center;"">
          <div style=""text-align: center; margin-right: 20px;"">
            <p style=""font-size: 24px; font-weight: bold;"">Event 1</p>
            <img src=""images/causal/self_care_activities_semantic/self_care_activities_semantic_2.png"" style=""width: 300px; height: auto;"">
          </div>
          <div style=""text-align: center; margin-left: 20px;"">
            <p style=""font-size: 24px; font-weight: bold;"">Event 2</p>
            <img src=""images/causal/self_care_activities_semantic/self_care_activities_semantic_4.png"" style=""width: 300px; height: auto;"">
          </div>
        </div>
        <p style=""text-align: center; margin-top: 20px;"">Did one event cause the other?</p>","2","2","4","true","self_care_activities_semantic"
"","","","","","html-button-response","18","544126","0.0-18.0","","6585","
        <div style=""display: flex; justify-content: center; align-items: center;"">
          <div style=""text-align: center; margin-right: 20px;"">
            <p style=""font-size: 24px; font-weight: bold;"">Event 1</p>
            <img src=""images/causal/visiting_cities_semantic/visiting_cities_semantic_ten.png"" style=""width: 300px; height: auto;"">
          </div>
          <div style=""text-align: center; margin-left: 20px;"">
            <p style=""font-size: 24px; font-weight: bold;"">Event 2</p>
            <img src=""images/causal/visiting_cities_semantic/visiting_cities_semantic_6.png"" style=""width: 300px; height: auto;"">
          </div>
        </div>
        <p style=""text-align: center; margin-top: 20px;"">Did one event cause the other?</p>","2","10","6","true","visiting_cities_semantic"
"","","","","","html-button-response","19","558912","0.0-19.0","","14785","
        <div style=""display: flex; justify-content: center; align-items: center;"">
          <div style=""text-align: center; margin-right: 20px;"">
            <p style=""font-size: 24px; font-weight: bold;"">Event 1</p>
            <img src=""images/causal/saving_a_cat_causal/saving_a_cat_causal_1.png"" style=""width: 300px; height: auto;"">
          </div>
          <div style=""text-align: center; margin-left: 20px;"">
            <p style=""font-size: 24px; font-weight: bold;"">Event 2</p>
            <img src=""images/causal/saving_a_cat_causal/saving_a_cat_causal_ten.png"" style=""width: 300px; height: auto;"">
          </div>
        </div>
        <p style=""text-align: center; margin-top: 20px;"">Did one event cause the other?</p>","0","1","10","true","saving_a_cat_causal"
"","","","","","html-button-response","20","564994","0.0-20.0","","6081","
        <div style=""display: flex; justify-content: center; align-items: center;"">
          <div style=""text-align: center; margin-right: 20px;"">
            <p style=""font-size: 24px; font-weight: bold;"">Event 1</p>
            <img src=""images/causal/restaurant_scheme/restaurant_scheme_8.png"" style=""width: 300px; height: auto;"">
          </div>
          <div style=""text-align: center; margin-left: 20px;"">
            <p style=""font-size: 24px; font-weight: bold;"">Event 2</p>
            <img src=""images/causal/restaurant_scheme/restaurant_scheme_9.png"" style=""width: 300px; height: auto;"">
          </div>
        </div>
        <p style=""text-align: center; margin-top: 20px;"">Did one event cause the other?</p>","0","8","9","true","restaurant_scheme"
"","","","","","html-button-response","21","570607","0.0-21.0","","5612","
        <div style=""display: flex; justify-content: center; align-items: center;"">
          <div style=""text-align: center; margin-right: 20px;"">
            <p style=""font-size: 24px; font-weight: bold;"">Event 1</p>
            <img src=""images/causal/supermarket_scheme/supermarket_scheme_8.png"" style=""width: 300px; height: auto;"">
          </div>
          <div style=""text-align: center; margin-left: 20px;"">
            <p style=""font-size: 24px; font-weight: bold;"">Event 2</p>
            <img src=""images/causal/supermarket_scheme/supermarket_scheme_9.png"" style=""width: 300px; height: auto;"">
          </div>
        </div>
        <p style=""text-align: center; margin-top: 20px;"">Did one event cause the other?</p>","0","8","9","true","supermarket_scheme"
"","","","","","html-button-response","22","576336","0.0-22.0","","5729","
        <div style=""display: flex; justify-content: center; align-items: center;"">
          <div style=""text-align: center; margin-right: 20px;"">
            <p style=""font-size: 24px; font-weight: bold;"">Event 1</p>
            <img src=""images/causal/visiting_cities_semantic/visiting_cities_semantic_7.png"" style=""width: 300px; height: auto;"">
          </div>
          <div style=""text-align: center; margin-left: 20px;"">
            <p style=""font-size: 24px; font-weight: bold;"">Event 2</p>
            <img src=""images/causal/visiting_cities_semantic/visiting_cities_semantic_9.png"" style=""width: 300px; height: auto;"">
          </div>
        </div>
        <p style=""text-align: center; margin-top: 20px;"">Did one event cause the other?</p>","2","7","9","true","visiting_cities_semantic"
"","","","","","html-button-response","23","584900","0.0-23.0","","8563","
        <div style=""display: flex; justify-content: center; align-items: center;"">
          <div style=""text-align: center; margin-right: 20px;"">
            <p style=""font-size: 24px; font-weight: bold;"">Event 1</p>
            <img src=""images/causal/using_technology_semantic/using_technology_semantic_2.png"" style=""width: 300px; height: auto;"">
          </div>
          <div style=""text-align: center; margin-left: 20px;"">
            <p style=""font-size: 24px; font-weight: bold;"">Event 2</p>
            <img src=""images/causal/using_technology_semantic/using_technology_semantic_5.png"" style=""width: 300px; height: auto;"">
          </div>
        </div>
        <p style=""text-align: center; margin-top: 20px;"">Did one event cause the other?</p>","2","2","5","true","using_technology_semantic"
"","","","","","html-button-response","24","591867","0.0-24.0","","6966","
        <div style=""display: flex; justify-content: center; align-items: center;"">
          <div style=""text-align: center; margin-right: 20px;"">
            <p style=""font-size: 24px; font-weight: bold;"">Event 1</p>
            <img src=""images/causal/visiting_cities_semantic/visiting_cities_semantic_7.png"" style=""width: 300px; height: auto;"">
          </div>
          <div style=""text-align: center; margin-left: 20px;"">
            <p style=""font-size: 24px; font-weight: bold;"">Event 2</p>
            <img src=""images/causal/visiting_cities_semantic/visiting_cities_semantic_8.png"" style=""width: 300px; height: auto;"">
          </div>
        </div>
        <p style=""text-align: center; margin-top: 20px;"">Did one event cause the other?</p>","2","7","8","true","visiting_cities_semantic"
"","","","","","html-button-response","25","610076","0.0-25.0","","18208","
        <div style=""display: flex; justify-content: center; align-items: center;"">
          <div style=""text-align: center; margin-right: 20px;"">
            <p style=""font-size: 24px; font-weight: bold;"">Event 1</p>
            <img src=""images/causal/self_care_activities_semantic/self_care_activities_semantic_1.png"" style=""width: 300px; height: auto;"">
          </div>
          <div style=""text-align: center; margin-left: 20px;"">
            <p style=""font-size: 24px; font-weight: bold;"">Event 2</p>
            <img src=""images/causal/self_care_activities_semantic/self_care_activities_semantic_3.png"" style=""width: 300px; height: auto;"">
          </div>
        </div>
        <p style=""text-align: center; margin-top: 20px;"">Did one event cause the other?</p>","2","1","3","true","self_care_activities_semantic"
"","","","","","html-button-response","26","615861","0.0-26.0","","5783","
        <div style=""display: flex; justify-content: center; align-items: center;"">
          <div style=""text-align: center; margin-right: 20px;"">
            <p style=""font-size: 24px; font-weight: bold;"">Event 1</p>
            <img src=""images/causal/supermarket_scheme/supermarket_scheme_8.png"" style=""width: 300px; height: auto;"">
          </div>
          <div style=""text-align: center; margin-left: 20px;"">
            <p style=""font-size: 24px; font-weight: bold;"">Event 2</p>
            <img src=""images/causal/supermarket_scheme/supermarket_scheme_1.png"" style=""width: 300px; height: auto;"">
          </div>
        </div>
        <p style=""text-align: center; margin-top: 20px;"">Did one event cause the other?</p>","1","8","1","true","supermarket_scheme"
"","","","","","html-button-response","27","621589","0.0-27.0","","5728","
        <div style=""display: flex; justify-content: center; align-items: center;"">
          <div style=""text-align: center; margin-right: 20px;"">
            <p style=""font-size: 24px; font-weight: bold;"">Event 1</p>
            <img src=""images/causal/visiting_cities_semantic/visiting_cities_semantic_9.png"" style=""width: 300px; height: auto;"">
          </div>
          <div style=""text-align: center; margin-left: 20px;"">
            <p style=""font-size: 24px; font-weight: bold;"">Event 2</p>
            <img src=""images/causal/visiting_cities_semantic/visiting_cities_semantic_ten.png"" style=""width: 300px; height: auto;"">
          </div>
        </div>
        <p style=""text-align: center; margin-top: 20px;"">Did one event cause the other?</p>","2","9","10","true","visiting_cities_semantic"
"","","","","","html-button-response","28","634149","0.0-28.0","","12558","
        <div style=""display: flex; justify-content: center; align-items: center;"">
          <div style=""text-align: center; margin-right: 20px;"">
            <p style=""font-size: 24px; font-weight: bold;"">Event 1</p>
            <img src=""images/causal/supermarket_scheme/supermarket_scheme_1.png"" style=""width: 300px; height: auto;"">
          </div>
          <div style=""text-align: center; margin-left: 20px;"">
            <p style=""font-size: 24px; font-weight: bold;"">Event 2</p>
            <img src=""images/causal/supermarket_scheme/supermarket_scheme_2.png"" style=""width: 300px; height: auto;"">
          </div>
        </div>
        <p style=""text-align: center; margin-top: 20px;"">Did one event cause the other?</p>","0","1","2","true","supermarket_scheme"
"","","","","","html-button-response","29","653702","0.0-29.0","","19552","
        <div style=""display: flex; justify-content: center; align-items: center;"">
          <div style=""text-align: center; margin-right: 20px;"">
            <p style=""font-size: 24px; font-weight: bold;"">Event 1</p>
            <img src=""images/causal/visiting_cities_semantic/visiting_cities_semantic_5.png"" style=""width: 300px; height: auto;"">
          </div>
          <div style=""text-align: center; margin-left: 20px;"">
            <p style=""font-size: 24px; font-weight: bold;"">Event 2</p>
            <img src=""images/causal/visiting_cities_semantic/visiting_cities_semantic_3.png"" style=""width: 300px; height: auto;"">
          </div>
        </div>
        <p style=""text-align: center; margin-top: 20px;"">Did one event cause the other?</p>","2","5","3","true","visiting_cities_semantic"
"","","","","","html-button-response","30","682613","0.0-30.0","","28911","
        <div style=""display: flex; justify-content: center; align-items: center;"">
          <div style=""text-align: center; margin-right: 20px;"">
            <p style=""font-size: 24px; font-weight: bold;"">Event 1</p>
            <img src=""images/causal/restaurant_scheme/restaurant_scheme_8.png"" style=""width: 300px; height: auto;"">
          </div>
          <div style=""text-align: center; margin-left: 20px;"">
            <p style=""font-size: 24px; font-weight: bold;"">Event 2</p>
            <img src=""images/causal/restaurant_scheme/restaurant_scheme_6.png"" style=""width: 300px; height: auto;"">
          </div>
        </div>
        <p style=""text-align: center; margin-top: 20px;"">Did one event cause the other?</p>","1","8","6","true","restaurant_scheme"
"","","","","","html-button-response","31","695482","0.0-31.0","","12868","
        <div style=""display: flex; justify-content: center; align-items: center;"">
          <div style=""text-align: center; margin-right: 20px;"">
            <p style=""font-size: 24px; font-weight: bold;"">Event 1</p>
            <img src=""images/causal/self_care_activities_semantic/self_care_activities_semantic_3.png"" style=""width: 300px; height: auto;"">
          </div>
          <div style=""text-align: center; margin-left: 20px;"">
            <p style=""font-size: 24px; font-weight: bold;"">Event 2</p>
            <img src=""images/causal/self_care_activities_semantic/self_care_activities_semantic_8.png"" style=""width: 300px; height: auto;"">
          </div>
        </div>
        <p style=""text-align: center; margin-top: 20px;"">Did one event cause the other?</p>","2","3","8","true","self_care_activities_semantic"
"","","","","","html-button-response","32","742858","0.0-32.0","","47375","
        <div style=""display: flex; justify-content: center; align-items: center;"">
          <div style=""text-align: center; margin-right: 20px;"">
            <p style=""font-size: 24px; font-weight: bold;"">Event 1</p>
            <img src=""images/causal/visiting_cities_semantic/visiting_cities_semantic_9.png"" style=""width: 300px; height: auto;"">
          </div>
          <div style=""text-align: center; margin-left: 20px;"">
            <p style=""font-size: 24px; font-weight: bold;"">Event 2</p>
            <img src=""images/causal/visiting_cities_semantic/visiting_cities_semantic_5.png"" style=""width: 300px; height: auto;"">
          </div>
        </div>
        <p style=""text-align: center; margin-top: 20px;"">Did one event cause the other?</p>","2","9","5","true","visiting_cities_semantic"
"","","","","","html-button-response","33","748615","0.0-33.0","","5755","
        <div style=""display: flex; justify-content: center; align-items: center;"">
          <div style=""text-align: center; margin-right: 20px;"">
            <p style=""font-size: 24px; font-weight: bold;"">Event 1</p>
            <img src=""images/causal/saving_a_cat_causal/saving_a_cat_causal_3.png"" style=""width: 300px; height: auto;"">
          </div>
          <div style=""text-align: center; margin-left: 20px;"">
            <p style=""font-size: 24px; font-weight: bold;"">Event 2</p>
            <img src=""images/causal/saving_a_cat_causal/saving_a_cat_causal_6.png"" style=""width: 300px; height: auto;"">
          </div>
        </div>
        <p style=""text-align: center; margin-top: 20px;"">Did one event cause the other?</p>","0","3","6","true","saving_a_cat_causal"
"","","","","","html-button-response","34","755487","0.0-34.0","","6871","
        <div style=""display: flex; justify-content: center; align-items: center;"">
          <div style=""text-align: center; margin-right: 20px;"">
            <p style=""font-size: 24px; font-weight: bold;"">Event 1</p>
            <img src=""images/causal/the_performance_causal/the_performance_causal_7.png"" style=""width: 300px; height: auto;"">
          </div>
          <div style=""text-align: center; margin-left: 20px;"">
            <p style=""font-size: 24px; font-weight: bold;"">Event 2</p>
            <img src=""images/causal/the_performance_causal/the_performance_causal_5.png"" style=""width: 300px; height: auto;"">
          </div>
        </div>
        <p style=""text-align: center; margin-top: 20px;"">Did one event cause the other?</p>","1","7","5","true","the_performance_causal"
"","","","","","html-button-response","35","761209","0.0-35.0","","5721","
        <div style=""display: flex; justify-content: center; align-items: center;"">
          <div style=""text-align: center; margin-right: 20px;"">
            <p style=""font-size: 24px; font-weight: bold;"">Event 1</p>
            <img src=""images/causal/the_performance_causal/the_performance_causal_2.png"" style=""width: 300px; height: auto;"">
          </div>
          <div style=""text-align: center; margin-left: 20px;"">
            <p style=""font-size: 24px; font-weight: bold;"">Event 2</p>
            <img src=""images/causal/the_performance_causal/the_performance_causal_3.png"" style=""width: 300px; height: auto;"">
          </div>
        </div>
        <p style=""text-align: center; margin-top: 20px;"">Did one event cause the other?</p>","0","2","3","true","the_performance_causal"
"","","","","","html-button-response","36","767118","0.0-36.0","","5908","
        <div style=""display: flex; justify-content: center; align-items: center;"">
          <div style=""text-align: center; margin-right: 20px;"">
            <p style=""font-size: 24px; font-weight: bold;"">Event 1</p>
            <img src=""images/causal/using_technology_semantic/using_technology_semantic_4.png"" style=""width: 300px; height: auto;"">
          </div>
          <div style=""text-align: center; margin-left: 20px;"">
            <p style=""font-size: 24px; font-weight: bold;"">Event 2</p>
            <img src=""images/causal/using_technology_semantic/using_technology_semantic_8.png"" style=""width: 300px; height: auto;"">
          </div>
        </div>
        <p style=""text-align: center; margin-top: 20px;"">Did one event cause the other?</p>","2","4","8","true","using_technology_semantic"
"","","","","","html-button-response","37","774287","0.0-37.0","","7168","
        <div style=""display: flex; justify-content: center; align-items: center;"">
          <div style=""text-align: center; margin-right: 20px;"">
            <p style=""font-size: 24px; font-weight: bold;"">Event 1</p>
            <img src=""images/causal/the_performance_causal/the_performance_causal_3.png"" style=""width: 300px; height: auto;"">
          </div>
          <div style=""text-align: center; margin-left: 20px;"">
            <p style=""font-size: 24px; font-weight: bold;"">Event 2</p>
            <img src=""images/causal/the_performance_causal/the_performance_causal_4.png"" style=""width: 300px; height: auto;"">
          </div>
        </div>
        <p style=""text-align: center; margin-top: 20px;"">Did one event cause the other?</p>","0","3","4","true","the_performance_causal"
"","","","","","html-button-response","38","788544","0.0-38.0","","14255","
        <div style=""display: flex; justify-content: center; align-items: center;"">
          <div style=""text-align: center; margin-right: 20px;"">
            <p style=""font-size: 24px; font-weight: bold;"">Event 1</p>
            <img src=""images/causal/visiting_cities_semantic/visiting_cities_semantic_1.png"" style=""width: 300px; height: auto;"">
          </div>
          <div style=""text-align: center; margin-left: 20px;"">
            <p style=""font-size: 24px; font-weight: bold;"">Event 2</p>
            <img src=""images/causal/visiting_cities_semantic/visiting_cities_semantic_6.png"" style=""width: 300px; height: auto;"">
          </div>
        </div>
        <p style=""text-align: center; margin-top: 20px;"">Did one event cause the other?</p>","2","1","6","true","visiting_cities_semantic"
"","","","","","html-button-response","39","794480","0.0-39.0","","5935","
        <div style=""display: flex; justify-content: center; align-items: center;"">
          <div style=""text-align: center; margin-right: 20px;"">
            <p style=""font-size: 24px; font-weight: bold;"">Event 1</p>
            <img src=""images/causal/saving_a_cat_causal/saving_a_cat_causal_3.png"" style=""width: 300px; height: auto;"">
          </div>
          <div style=""text-align: center; margin-left: 20px;"">
            <p style=""font-size: 24px; font-weight: bold;"">Event 2</p>
            <img src=""images/causal/saving_a_cat_causal/saving_a_cat_causal_4.png"" style=""width: 300px; height: auto;"">
          </div>
        </div>
        <p style=""text-align: center; margin-top: 20px;"">Did one event cause the other?</p>","0","3","4","true","saving_a_cat_causal"
"","","","","","html-button-response","40","800624","0.0-40.0","","6144","
        <div style=""display: flex; justify-content: center; align-items: center;"">
          <div style=""text-align: center; margin-right: 20px;"">
            <p style=""font-size: 24px; font-weight: bold;"">Event 1</p>
            <img src=""images/causal/restaurant_scheme/restaurant_scheme_ten.png"" style=""width: 300px; height: auto;"">
          </div>
          <div style=""text-align: center; margin-left: 20px;"">
            <p style=""font-size: 24px; font-weight: bold;"">Event 2</p>
            <img src=""images/causal/restaurant_scheme/restaurant_scheme_8.png"" style=""width: 300px; height: auto;"">
          </div>
        </div>
        <p style=""text-align: center; margin-top: 20px;"">Did one event cause the other?</p>","1","10","8","true","restaurant_scheme"
"","","","","","html-button-response","41","808186","0.0-41.0","","7560","
        <div style=""display: flex; justify-content: center; align-items: center;"">
          <div style=""text-align: center; margin-right: 20px;"">
            <p style=""font-size: 24px; font-weight: bold;"">Event 1</p>
            <img src=""images/causal/using_technology_semantic/using_technology_semantic_2.png"" style=""width: 300px; height: auto;"">
          </div>
          <div style=""text-align: center; margin-left: 20px;"">
            <p style=""font-size: 24px; font-weight: bold;"">Event 2</p>
            <img src=""images/causal/using_technology_semantic/using_technology_semantic_7.png"" style=""width: 300px; height: auto;"">
          </div>
        </div>
        <p style=""text-align: center; margin-top: 20px;"">Did one event cause the other?</p>","2","2","7","true","using_technology_semantic"
"","","","","","html-button-response","42","814138","0.0-42.0","","5952","
        <div style=""display: flex; justify-content: center; align-items: center;"">
          <div style=""text-align: center; margin-right: 20px;"">
            <p style=""font-size: 24px; font-weight: bold;"">Event 1</p>
            <img src=""images/causal/using_technology_semantic/using_technology_semantic_6.png"" style=""width: 300px; height: auto;"">
          </div>
          <div style=""text-align: center; margin-left: 20px;"">
            <p style=""font-size: 24px; font-weight: bold;"">Event 2</p>
            <img src=""images/causal/using_technology_semantic/using_technology_semantic_4.png"" style=""width: 300px; height: auto;"">
          </div>
        </div>
        <p style=""text-align: center; margin-top: 20px;"">Did one event cause the other?</p>","2","6","4","true","using_technology_semantic"
"","","","","","html-button-response","43","821541","0.0-43.0","","7401","
        <div style=""display: flex; justify-content: center; align-items: center;"">
          <div style=""text-align: center; margin-right: 20px;"">
            <p style=""font-size: 24px; font-weight: bold;"">Event 1</p>
            <img src=""images/causal/self_care_activities_semantic/self_care_activities_semantic_8.png"" style=""width: 300px; height: auto;"">
          </div>
          <div style=""text-align: center; margin-left: 20px;"">
            <p style=""font-size: 24px; font-weight: bold;"">Event 2</p>
            <img src=""images/causal/self_care_activities_semantic/self_care_activities_semantic_1.png"" style=""width: 300px; height: auto;"">
          </div>
        </div>
        <p style=""text-align: center; margin-top: 20px;"">Did one event cause the other?</p>","2","8","1","true","self_care_activities_semantic"
"","","","","","html-button-response","44","828155","0.0-44.0","","6613","
        <div style=""display: flex; justify-content: center; align-items: center;"">
          <div style=""text-align: center; margin-right: 20px;"">
            <p style=""font-size: 24px; font-weight: bold;"">Event 1</p>
            <img src=""images/causal/redecorating_a_house_semantic/redecorating_a_house_semantic_4.png"" style=""width: 300px; height: auto;"">
          </div>
          <div style=""text-align: center; margin-left: 20px;"">
            <p style=""font-size: 24px; font-weight: bold;"">Event 2</p>
            <img src=""images/causal/redecorating_a_house_semantic/redecorating_a_house_semantic_8.png"" style=""width: 300px; height: auto;"">
          </div>
        </div>
        <p style=""text-align: center; margin-top: 20px;"">Did one event cause the other?</p>","2","4","8","true","redecorating_a_house_semantic"
"","","","","","html-button-response","45","875739","0.0-45.0","","47583","
        <div style=""display: flex; justify-content: center; align-items: center;"">
          <div style=""text-align: center; margin-right: 20px;"">
            <p style=""font-size: 24px; font-weight: bold;"">Event 1</p>
            <img src=""images/causal/visiting_cities_semantic/visiting_cities_semantic_8.png"" style=""width: 300px; height: auto;"">
          </div>
          <div style=""text-align: center; margin-left: 20px;"">
            <p style=""font-size: 24px; font-weight: bold;"">Event 2</p>
            <img src=""images/causal/visiting_cities_semantic/visiting_cities_semantic_2.png"" style=""width: 300px; height: auto;"">
          </div>
        </div>
        <p style=""text-align: center; margin-top: 20px;"">Did one event cause the other?</p>","2","8","2","true","visiting_cities_semantic"
"","","","","","html-button-response","46","881499","0.0-46.0","","5759","
        <div style=""display: flex; justify-content: center; align-items: center;"">
          <div style=""text-align: center; margin-right: 20px;"">
            <p style=""font-size: 24px; font-weight: bold;"">Event 1</p>
            <img src=""images/causal/saving_a_cat_causal/saving_a_cat_causal_2.png"" style=""width: 300px; height: auto;"">
          </div>
          <div style=""text-align: center; margin-left: 20px;"">
            <p style=""font-size: 24px; font-weight: bold;"">Event 2</p>
            <img src=""images/causal/saving_a_cat_causal/saving_a_cat_causal_3.png"" style=""width: 300px; height: auto;"">
          </div>
        </div>
        <p style=""text-align: center; margin-top: 20px;"">Did one event cause the other?</p>","0","2","3","true","saving_a_cat_causal"
"","","","","","html-button-response","47","892063","0.0-47.0","","10563","
        <div style=""display: flex; justify-content: center; align-items: center;"">
          <div style=""text-align: center; margin-right: 20px;"">
            <p style=""font-size: 24px; font-weight: bold;"">Event 1</p>
            <img src=""images/causal/restaurant_scheme/restaurant_scheme_1.png"" style=""width: 300px; height: auto;"">
          </div>
          <div style=""text-align: center; margin-left: 20px;"">
            <p style=""font-size: 24px; font-weight: bold;"">Event 2</p>
            <img src=""images/causal/restaurant_scheme/restaurant_scheme_9.png"" style=""width: 300px; height: auto;"">
          </div>
        </div>
        <p style=""text-align: center; margin-top: 20px;"">Did one event cause the other?</p>","0","1","9","true","restaurant_scheme"
"","","","","","html-button-response","48","897791","0.0-48.0","","5727","
        <div style=""display: flex; justify-content: center; align-items: center;"">
          <div style=""text-align: center; margin-right: 20px;"">
            <p style=""font-size: 24px; font-weight: bold;"">Event 1</p>
            <img src=""images/causal/saving_a_cat_causal/saving_a_cat_causal_5.png"" style=""width: 300px; height: auto;"">
          </div>
          <div style=""text-align: center; margin-left: 20px;"">
            <p style=""font-size: 24px; font-weight: bold;"">Event 2</p>
            <img src=""images/causal/saving_a_cat_causal/saving_a_cat_causal_7.png"" style=""width: 300px; height: auto;"">
          </div>
        </div>
        <p style=""text-align: center; margin-top: 20px;"">Did one event cause the other?</p>","0","5","7","true","saving_a_cat_causal"
"","","","","","html-button-response","49","957803","0.0-49.0","","null","
        <div style=""display: flex; justify-content: center; align-items: center;"">
          <div style=""text-align: center; margin-right: 20px;"">
            <p style=""font-size: 24px; font-weight: bold;"">Event 1</p>
            <img src=""images/causal/redecorating_a_house_semantic/redecorating_a_house_semantic_1.png"" style=""width: 300px; height: auto;"">
          </div>
          <div style=""text-align: center; margin-left: 20px;"">
            <p style=""font-size: 24px; font-weight: bold;"">Event 2</p>
            <img src=""images/causal/redecorating_a_house_semantic/redecorating_a_house_semantic_6.png"" style=""width: 300px; height: auto;"">
          </div>
        </div>
        <p style=""text-align: center; margin-top: 20px;"">Did one event cause the other?</p>","null","1","6","true","redecorating_a_house_semantic"
"","","","","","html-button-response","50","980749","0.0-50.0","","22945","
        <div style=""display: flex; justify-content: center; align-items: center;"">
          <div style=""text-align: center; margin-right: 20px;"">
            <p style=""font-size: 24px; font-weight: bold;"">Event 1</p>
            <img src=""images/causal/the_performance_causal/the_performance_causal_4.png"" style=""width: 300px; height: auto;"">
          </div>
          <div style=""text-align: center; margin-left: 20px;"">
            <p style=""font-size: 24px; font-weight: bold;"">Event 2</p>
            <img src=""images/causal/the_performance_causal/the_performance_causal_2.png"" style=""width: 300px; height: auto;"">
          </div>
        </div>
        <p style=""text-align: center; margin-top: 20px;"">Did one event cause the other?</p>","1","4","2","true","the_performance_causal"
"","","","","","html-button-response","51","988319","0.0-51.0","","7570","
        <div style=""display: flex; justify-content: center; align-items: center;"">
          <div style=""text-align: center; margin-right: 20px;"">
            <p style=""font-size: 24px; font-weight: bold;"">Event 1</p>
            <img src=""images/causal/the_performance_causal/the_performance_causal_7.png"" style=""width: 300px; height: auto;"">
          </div>
          <div style=""text-align: center; margin-left: 20px;"">
            <p style=""font-size: 24px; font-weight: bold;"">Event 2</p>
            <img src=""images/causal/the_performance_causal/the_performance_causal_2.png"" style=""width: 300px; height: auto;"">
          </div>
        </div>
        <p style=""text-align: center; margin-top: 20px;"">Did one event cause the other?</p>","2","7","2","true","the_performance_causal"
"","","","","","html-button-response","52","993798","0.0-52.0","","5477","
        <div style=""display: flex; justify-content: center; align-items: center;"">
          <div style=""text-align: center; margin-right: 20px;"">
            <p style=""font-size: 24px; font-weight: bold;"">Event 1</p>
            <img src=""images/causal/the_performance_causal/the_performance_causal_3.png"" style=""width: 300px; height: auto;"">
          </div>
          <div style=""text-align: center; margin-left: 20px;"">
            <p style=""font-size: 24px; font-weight: bold;"">Event 2</p>
            <img src=""images/causal/the_performance_causal/the_performance_causal_8.png"" style=""width: 300px; height: auto;"">
          </div>
        </div>
        <p style=""text-align: center; margin-top: 20px;"">Did one event cause the other?</p>","2","3","8","true","the_performance_causal"
"","","","","","html-button-response","53","1000188","0.0-53.0","","6389","
        <div style=""display: flex; justify-content: center; align-items: center;"">
          <div style=""text-align: center; margin-right: 20px;"">
            <p style=""font-size: 24px; font-weight: bold;"">Event 1</p>
            <img src=""images/causal/visiting_cities_semantic/visiting_cities_semantic_2.png"" style=""width: 300px; height: auto;"">
          </div>
          <div style=""text-align: center; margin-left: 20px;"">
            <p style=""font-size: 24px; font-weight: bold;"">Event 2</p>
            <img src=""images/causal/visiting_cities_semantic/visiting_cities_semantic_7.png"" style=""width: 300px; height: auto;"">
          </div>
        </div>
        <p style=""text-align: center; margin-top: 20px;"">Did one event cause the other?</p>","2","2","7","true","visiting_cities_semantic"
"","","","","","html-button-response","54","1061097","0.0-54.0","","null","
        <div style=""display: flex; justify-content: center; align-items: center;"">
          <div style=""text-align: center; margin-right: 20px;"">
            <p style=""font-size: 24px; font-weight: bold;"">Event 1</p>
            <img src=""images/causal/visiting_cities_semantic/visiting_cities_semantic_7.png"" style=""width: 300px; height: auto;"">
          </div>
          <div style=""text-align: center; margin-left: 20px;"">
            <p style=""font-size: 24px; font-weight: bold;"">Event 2</p>
            <img src=""images/causal/visiting_cities_semantic/visiting_cities_semantic_5.png"" style=""width: 300px; height: auto;"">
          </div>
        </div>
        <p style=""text-align: center; margin-top: 20px;"">Did one event cause the other?</p>","null","7","5","true","visiting_cities_semantic"
"","","","","","html-button-response","55","1122100","0.0-55.0","","null","
        <div style=""display: flex; justify-content: center; align-items: center;"">
          <div style=""text-align: center; margin-right: 20px;"">
            <p style=""font-size: 24px; font-weight: bold;"">Event 1</p>
            <img src=""images/causal/saving_a_cat_causal/saving_a_cat_causal_1.png"" style=""width: 300px; height: auto;"">
          </div>
          <div style=""text-align: center; margin-left: 20px;"">
            <p style=""font-size: 24px; font-weight: bold;"">Event 2</p>
            <img src=""images/causal/saving_a_cat_causal/saving_a_cat_causal_9.png"" style=""width: 300px; height: auto;"">
          </div>
        </div>
        <p style=""text-align: center; margin-top: 20px;"">Did one event cause the other?</p>","null","1","9","true","saving_a_cat_causal"
"","","","","","html-button-response","56","1128284","0.0-56.0","","6182","
        <div style=""display: flex; justify-content: center; align-items: center;"">
          <div style=""text-align: center; margin-right: 20px;"">
            <p style=""font-size: 24px; font-weight: bold;"">Event 1</p>
            <img src=""images/causal/visiting_cities_semantic/visiting_cities_semantic_3.png"" style=""width: 300px; height: auto;"">
          </div>
          <div style=""text-align: center; margin-left: 20px;"">
            <p style=""font-size: 24px; font-weight: bold;"">Event 2</p>
            <img src=""images/causal/visiting_cities_semantic/visiting_cities_semantic_ten.png"" style=""width: 300px; height: auto;"">
          </div>
        </div>
        <p style=""text-align: center; margin-top: 20px;"">Did one event cause the other?</p>","2","3","10","true","visiting_cities_semantic"
"","","","","","html-button-response","57","1134177","0.0-57.0","","5892","
        <div style=""display: flex; justify-content: center; align-items: center;"">
          <div style=""text-align: center; margin-right: 20px;"">
            <p style=""font-size: 24px; font-weight: bold;"">Event 1</p>
            <img src=""images/causal/supermarket_scheme/supermarket_scheme_9.png"" style=""width: 300px; height: auto;"">
          </div>
          <div style=""text-align: center; margin-left: 20px;"">
            <p style=""font-size: 24px; font-weight: bold;"">Event 2</p>
            <img src=""images/causal/supermarket_scheme/supermarket_scheme_4.png"" style=""width: 300px; height: auto;"">
          </div>
        </div>
        <p style=""text-align: center; margin-top: 20px;"">Did one event cause the other?</p>","1","9","4","true","supermarket_scheme"
"","","","","","html-button-response","58","1139928","0.0-58.0","","5750","
        <div style=""display: flex; justify-content: center; align-items: center;"">
          <div style=""text-align: center; margin-right: 20px;"">
            <p style=""font-size: 24px; font-weight: bold;"">Event 1</p>
            <img src=""images/causal/using_technology_semantic/using_technology_semantic_4.png"" style=""width: 300px; height: auto;"">
          </div>
          <div style=""text-align: center; margin-left: 20px;"">
            <p style=""font-size: 24px; font-weight: bold;"">Event 2</p>
            <img src=""images/causal/using_technology_semantic/using_technology_semantic_5.png"" style=""width: 300px; height: auto;"">
          </div>
        </div>
        <p style=""text-align: center; margin-top: 20px;"">Did one event cause the other?</p>","2","4","5","true","using_technology_semantic"
"","","","","","html-button-response","59","1150431","0.0-59.0","","10501","
        <div style=""display: flex; justify-content: center; align-items: center;"">
          <div style=""text-align: center; margin-right: 20px;"">
            <p style=""font-size: 24px; font-weight: bold;"">Event 1</p>
            <img src=""images/causal/saving_a_cat_causal/saving_a_cat_causal_5.png"" style=""width: 300px; height: auto;"">
          </div>
          <div style=""text-align: center; margin-left: 20px;"">
            <p style=""font-size: 24px; font-weight: bold;"">Event 2</p>
            <img src=""images/causal/saving_a_cat_causal/saving_a_cat_causal_1.png"" style=""width: 300px; height: auto;"">
          </div>
        </div>
        <p style=""text-align: center; margin-top: 20px;"">Did one event cause the other?</p>","2","5","1","true","saving_a_cat_causal"
"","","","","","html-button-response","60","1156206","0.0-60.0","","5774","
        <div style=""display: flex; justify-content: center; align-items: center;"">
          <div style=""text-align: center; margin-right: 20px;"">
            <p style=""font-size: 24px; font-weight: bold;"">Event 1</p>
            <img src=""images/causal/self_care_activities_semantic/self_care_activities_semantic_ten.png"" style=""width: 300px; height: auto;"">
          </div>
          <div style=""text-align: center; margin-left: 20px;"">
            <p style=""font-size: 24px; font-weight: bold;"">Event 2</p>
            <img src=""images/causal/self_care_activities_semantic/self_care_activities_semantic_7.png"" style=""width: 300px; height: auto;"">
          </div>
        </div>
        <p style=""text-align: center; margin-top: 20px;"">Did one event cause the other?</p>","2","10","7","true","self_care_activities_semantic"
"","","","","","html-button-response","61","1163380","0.0-61.0","","7173","
        <div style=""display: flex; justify-content: center; align-items: center;"">
          <div style=""text-align: center; margin-right: 20px;"">
            <p style=""font-size: 24px; font-weight: bold;"">Event 1</p>
            <img src=""images/causal/redecorating_a_house_semantic/redecorating_a_house_semantic_3.png"" style=""width: 300px; height: auto;"">
          </div>
          <div style=""text-align: center; margin-left: 20px;"">
            <p style=""font-size: 24px; font-weight: bold;"">Event 2</p>
            <img src=""images/causal/redecorating_a_house_semantic/redecorating_a_house_semantic_2.png"" style=""width: 300px; height: auto;"">
          </div>
        </div>
        <p style=""text-align: center; margin-top: 20px;"">Did one event cause the other?</p>","2","3","2","true","redecorating_a_house_semantic"
"","","","","","html-button-response","62","1169194","0.0-62.0","","5813","
        <div style=""display: flex; justify-content: center; align-items: center;"">
          <div style=""text-align: center; margin-right: 20px;"">
            <p style=""font-size: 24px; font-weight: bold;"">Event 1</p>
            <img src=""images/causal/restaurant_scheme/restaurant_scheme_3.png"" style=""width: 300px; height: auto;"">
          </div>
          <div style=""text-align: center; margin-left: 20px;"">
            <p style=""font-size: 24px; font-weight: bold;"">Event 2</p>
            <img src=""images/causal/restaurant_scheme/restaurant_scheme_1.png"" style=""width: 300px; height: auto;"">
          </div>
        </div>
        <p style=""text-align: center; margin-top: 20px;"">Did one event cause the other?</p>","1","3","1","true","restaurant_scheme"
"","","","","","html-button-response","63","1203705","0.0-63.0","","34510","
        <div style=""display: flex; justify-content: center; align-items: center;"">
          <div style=""text-align: center; margin-right: 20px;"">
            <p style=""font-size: 24px; font-weight: bold;"">Event 1</p>
            <img src=""images/causal/using_technology_semantic/using_technology_semantic_4.png"" style=""width: 300px; height: auto;"">
          </div>
          <div style=""text-align: center; margin-left: 20px;"">
            <p style=""font-size: 24px; font-weight: bold;"">Event 2</p>
            <img src=""images/causal/using_technology_semantic/using_technology_semantic_3.png"" style=""width: 300px; height: auto;"">
          </div>
        </div>
        <p style=""text-align: center; margin-top: 20px;"">Did one event cause the other?</p>","2","4","3","true","using_technology_semantic"
"","","","","","html-button-response","64","1209575","0.0-64.0","","5869","
        <div style=""display: flex; justify-content: center; align-items: center;"">
          <div style=""text-align: center; margin-right: 20px;"">
            <p style=""font-size: 24px; font-weight: bold;"">Event 1</p>
            <img src=""images/causal/the_performance_causal/the_performance_causal_4.png"" style=""width: 300px; height: auto;"">
          </div>
          <div style=""text-align: center; margin-left: 20px;"">
            <p style=""font-size: 24px; font-weight: bold;"">Event 2</p>
            <img src=""images/causal/the_performance_causal/the_performance_causal_5.png"" style=""width: 300px; height: auto;"">
          </div>
        </div>
        <p style=""text-align: center; margin-top: 20px;"">Did one event cause the other?</p>","0","4","5","true","the_performance_causal"
"","","","","","html-button-response","65","1215347","0.0-65.0","","5771","
        <div style=""display: flex; justify-content: center; align-items: center;"">
          <div style=""text-align: center; margin-right: 20px;"">
            <p style=""font-size: 24px; font-weight: bold;"">Event 1</p>
            <img src=""images/causal/redecorating_a_house_semantic/redecorating_a_house_semantic_9.png"" style=""width: 300px; height: auto;"">
          </div>
          <div style=""text-align: center; margin-left: 20px;"">
            <p style=""font-size: 24px; font-weight: bold;"">Event 2</p>
            <img src=""images/causal/redecorating_a_house_semantic/redecorating_a_house_semantic_ten.png"" style=""width: 300px; height: auto;"">
          </div>
        </div>
        <p style=""text-align: center; margin-top: 20px;"">Did one event cause the other?</p>","2","9","10","true","redecorating_a_house_semantic"
"","","","","","html-button-response","66","1267952","0.0-66.0","","52604","
        <div style=""display: flex; justify-content: center; align-items: center;"">
          <div style=""text-align: center; margin-right: 20px;"">
            <p style=""font-size: 24px; font-weight: bold;"">Event 1</p>
            <img src=""images/causal/redecorating_a_house_semantic/redecorating_a_house_semantic_4.png"" style=""width: 300px; height: auto;"">
          </div>
          <div style=""text-align: center; margin-left: 20px;"">
            <p style=""font-size: 24px; font-weight: bold;"">Event 2</p>
            <img src=""images/causal/redecorating_a_house_semantic/redecorating_a_house_semantic_7.png"" style=""width: 300px; height: auto;"">
          </div>
        </div>
        <p style=""text-align: center; margin-top: 20px;"">Did one event cause the other?</p>","2","4","7","true","redecorating_a_house_semantic"
"","","","","","html-button-response","67","1285021","0.0-67.0","","17068","
        <div style=""display: flex; justify-content: center; align-items: center;"">
          <div style=""text-align: center; margin-right: 20px;"">
            <p style=""font-size: 24px; font-weight: bold;"">Event 1</p>
            <img src=""images/causal/supermarket_scheme/supermarket_scheme_8.png"" style=""width: 300px; height: auto;"">
          </div>
          <div style=""text-align: center; margin-left: 20px;"">
            <p style=""font-size: 24px; font-weight: bold;"">Event 2</p>
            <img src=""images/causal/supermarket_scheme/supermarket_scheme_5.png"" style=""width: 300px; height: auto;"">
          </div>
        </div>
        <p style=""text-align: center; margin-top: 20px;"">Did one event cause the other?</p>","1","8","5","true","supermarket_scheme"
"","","","","","html-button-response","68","1290867","0.0-68.0","","5845","
        <div style=""display: flex; justify-content: center; align-items: center;"">
          <div style=""text-align: center; margin-right: 20px;"">
            <p style=""font-size: 24px; font-weight: bold;"">Event 1</p>
            <img src=""images/causal/restaurant_scheme/restaurant_scheme_1.png"" style=""width: 300px; height: auto;"">
          </div>
          <div style=""text-align: center; margin-left: 20px;"">
            <p style=""font-size: 24px; font-weight: bold;"">Event 2</p>
            <img src=""images/causal/restaurant_scheme/restaurant_scheme_7.png"" style=""width: 300px; height: auto;"">
          </div>
        </div>
        <p style=""text-align: center; margin-top: 20px;"">Did one event cause the other?</p>","0","1","7","true","restaurant_scheme"
"","","","","","html-button-response","69","1297606","0.0-69.0","","6738","
        <div style=""display: flex; justify-content: center; align-items: center;"">
          <div style=""text-align: center; margin-right: 20px;"">
            <p style=""font-size: 24px; font-weight: bold;"">Event 1</p>
            <img src=""images/causal/saving_a_cat_causal/saving_a_cat_causal_9.png"" style=""width: 300px; height: auto;"">
          </div>
          <div style=""text-align: center; margin-left: 20px;"">
            <p style=""font-size: 24px; font-weight: bold;"">Event 2</p>
            <img src=""images/causal/saving_a_cat_causal/saving_a_cat_causal_ten.png"" style=""width: 300px; height: auto;"">
          </div>
        </div>
        <p style=""text-align: center; margin-top: 20px;"">Did one event cause the other?</p>","0","9","10","true","saving_a_cat_causal"
"","","","","","html-button-response","70","1306430","0.0-70.0","","8823","
        <div style=""display: flex; justify-content: center; align-items: center;"">
          <div style=""text-align: center; margin-right: 20px;"">
            <p style=""font-size: 24px; font-weight: bold;"">Event 1</p>
            <img src=""images/causal/self_care_activities_semantic/self_care_activities_semantic_6.png"" style=""width: 300px; height: auto;"">
          </div>
          <div style=""text-align: center; margin-left: 20px;"">
            <p style=""font-size: 24px; font-weight: bold;"">Event 2</p>
            <img src=""images/causal/self_care_activities_semantic/self_care_activities_semantic_4.png"" style=""width: 300px; height: auto;"">
          </div>
        </div>
        <p style=""text-align: center; margin-top: 20px;"">Did one event cause the other?</p>","2","6","4","true","self_care_activities_semantic"
"","","","","","html-button-response","71","1352064","0.0-71.0","","45633","
        <div style=""display: flex; justify-content: center; align-items: center;"">
          <div style=""text-align: center; margin-right: 20px;"">
            <p style=""font-size: 24px; font-weight: bold;"">Event 1</p>
            <img src=""images/causal/redecorating_a_house_semantic/redecorating_a_house_semantic_5.png"" style=""width: 300px; height: auto;"">
          </div>
          <div style=""text-align: center; margin-left: 20px;"">
            <p style=""font-size: 24px; font-weight: bold;"">Event 2</p>
            <img src=""images/causal/redecorating_a_house_semantic/redecorating_a_house_semantic_3.png"" style=""width: 300px; height: auto;"">
          </div>
        </div>
        <p style=""text-align: center; margin-top: 20px;"">Did one event cause the other?</p>","2","5","3","true","redecorating_a_house_semantic"
"","","","","","html-button-response","72","1357900","0.0-72.0","","5835","
        <div style=""display: flex; justify-content: center; align-items: center;"">
          <div style=""text-align: center; margin-right: 20px;"">
            <p style=""font-size: 24px; font-weight: bold;"">Event 1</p>
            <img src=""images/causal/redecorating_a_house_semantic/redecorating_a_house_semantic_2.png"" style=""width: 300px; height: auto;"">
          </div>
          <div style=""text-align: center; margin-left: 20px;"">
            <p style=""font-size: 24px; font-weight: bold;"">Event 2</p>
            <img src=""images/causal/redecorating_a_house_semantic/redecorating_a_house_semantic_4.png"" style=""width: 300px; height: auto;"">
          </div>
        </div>
        <p style=""text-align: center; margin-top: 20px;"">Did one event cause the other?</p>","2","2","4","true","redecorating_a_house_semantic"
"","","","","","html-button-response","73","1368066","0.0-73.0","","10165","
        <div style=""display: flex; justify-content: center; align-items: center;"">
          <div style=""text-align: center; margin-right: 20px;"">
            <p style=""font-size: 24px; font-weight: bold;"">Event 1</p>
            <img src=""images/causal/self_care_activities_semantic/self_care_activities_semantic_ten.png"" style=""width: 300px; height: auto;"">
          </div>
          <div style=""text-align: center; margin-left: 20px;"">
            <p style=""font-size: 24px; font-weight: bold;"">Event 2</p>
            <img src=""images/causal/self_care_activities_semantic/self_care_activities_semantic_2.png"" style=""width: 300px; height: auto;"">
          </div>
        </div>
        <p style=""text-align: center; margin-top: 20px;"">Did one event cause the other?</p>","2","10","2","true","self_care_activities_semantic"
"","","","","","html-button-response","74","1374090","0.0-74.0","","6022","
        <div style=""display: flex; justify-content: center; align-items: center;"">
          <div style=""text-align: center; margin-right: 20px;"">
            <p style=""font-size: 24px; font-weight: bold;"">Event 1</p>
            <img src=""images/causal/self_care_activities_semantic/self_care_activities_semantic_9.png"" style=""width: 300px; height: auto;"">
          </div>
          <div style=""text-align: center; margin-left: 20px;"">
            <p style=""font-size: 24px; font-weight: bold;"">Event 2</p>
            <img src=""images/causal/self_care_activities_semantic/self_care_activities_semantic_7.png"" style=""width: 300px; height: auto;"">
          </div>
        </div>
        <p style=""text-align: center; margin-top: 20px;"">Did one event cause the other?</p>","2","9","7","true","self_care_activities_semantic"
"","","","","","html-button-response","75","1380279","0.0-75.0","","6189","
        <div style=""display: flex; justify-content: center; align-items: center;"">
          <div style=""text-align: center; margin-right: 20px;"">
            <p style=""font-size: 24px; font-weight: bold;"">Event 1</p>
            <img src=""images/causal/visiting_cities_semantic/visiting_cities_semantic_6.png"" style=""width: 300px; height: auto;"">
          </div>
          <div style=""text-align: center; margin-left: 20px;"">
            <p style=""font-size: 24px; font-weight: bold;"">Event 2</p>
            <img src=""images/causal/visiting_cities_semantic/visiting_cities_semantic_7.png"" style=""width: 300px; height: auto;"">
          </div>
        </div>
        <p style=""text-align: center; margin-top: 20px;"">Did one event cause the other?</p>","2","6","7","true","visiting_cities_semantic"
"","","","","","html-button-response","76","1386799","0.0-76.0","","6519","
        <div style=""display: flex; justify-content: center; align-items: center;"">
          <div style=""text-align: center; margin-right: 20px;"">
            <p style=""font-size: 24px; font-weight: bold;"">Event 1</p>
            <img src=""images/causal/restaurant_scheme/restaurant_scheme_9.png"" style=""width: 300px; height: auto;"">
          </div>
          <div style=""text-align: center; margin-left: 20px;"">
            <p style=""font-size: 24px; font-weight: bold;"">Event 2</p>
            <img src=""images/causal/restaurant_scheme/restaurant_scheme_ten.png"" style=""width: 300px; height: auto;"">
          </div>
        </div>
        <p style=""text-align: center; margin-top: 20px;"">Did one event cause the other?</p>","0","9","10","true","restaurant_scheme"
"","","","","","html-button-response","77","1396447","0.0-77.0","","9647","
        <div style=""display: flex; justify-content: center; align-items: center;"">
          <div style=""text-align: center; margin-right: 20px;"">
            <p style=""font-size: 24px; font-weight: bold;"">Event 1</p>
            <img src=""images/causal/supermarket_scheme/supermarket_scheme_6.png"" style=""width: 300px; height: auto;"">
          </div>
          <div style=""text-align: center; margin-left: 20px;"">
            <p style=""font-size: 24px; font-weight: bold;"">Event 2</p>
            <img src=""images/causal/supermarket_scheme/supermarket_scheme_8.png"" style=""width: 300px; height: auto;"">
          </div>
        </div>
        <p style=""text-align: center; margin-top: 20px;"">Did one event cause the other?</p>","0","6","8","true","supermarket_scheme"
"","","","","","html-button-response","78","1403017","0.0-78.0","","6569","
        <div style=""display: flex; justify-content: center; align-items: center;"">
          <div style=""text-align: center; margin-right: 20px;"">
            <p style=""font-size: 24px; font-weight: bold;"">Event 1</p>
            <img src=""images/causal/saving_a_cat_causal/saving_a_cat_causal_8.png"" style=""width: 300px; height: auto;"">
          </div>
          <div style=""text-align: center; margin-left: 20px;"">
            <p style=""font-size: 24px; font-weight: bold;"">Event 2</p>
            <img src=""images/causal/saving_a_cat_causal/saving_a_cat_causal_3.png"" style=""width: 300px; height: auto;"">
          </div>
        </div>
        <p style=""text-align: center; margin-top: 20px;"">Did one event cause the other?</p>","1","8","3","true","saving_a_cat_causal"
"","","","","","html-button-response","79","1410469","0.0-79.0","","7451","
        <div style=""display: flex; justify-content: center; align-items: center;"">
          <div style=""text-align: center; margin-right: 20px;"">
            <p style=""font-size: 24px; font-weight: bold;"">Event 1</p>
            <img src=""images/causal/visiting_cities_semantic/visiting_cities_semantic_5.png"" style=""width: 300px; height: auto;"">
          </div>
          <div style=""text-align: center; margin-left: 20px;"">
            <p style=""font-size: 24px; font-weight: bold;"">Event 2</p>
            <img src=""images/causal/visiting_cities_semantic/visiting_cities_semantic_6.png"" style=""width: 300px; height: auto;"">
          </div>
        </div>
        <p style=""text-align: center; margin-top: 20px;"">Did one event cause the other?</p>","2","5","6","true","visiting_cities_semantic"
"","","","","","html-button-response","80","1416564","0.0-80.0","","6094","
        <div style=""display: flex; justify-content: center; align-items: center;"">
          <div style=""text-align: center; margin-right: 20px;"">
            <p style=""font-size: 24px; font-weight: bold;"">Event 1</p>
            <img src=""images/causal/supermarket_scheme/supermarket_scheme_2.png"" style=""width: 300px; height: auto;"">
          </div>
          <div style=""text-align: center; margin-left: 20px;"">
            <p style=""font-size: 24px; font-weight: bold;"">Event 2</p>
            <img src=""images/causal/supermarket_scheme/supermarket_scheme_4.png"" style=""width: 300px; height: auto;"">
          </div>
        </div>
        <p style=""text-align: center; margin-top: 20px;"">Did one event cause the other?</p>","0","2","4","true","supermarket_scheme"
"","","","","","html-button-response","81","1425168","0.0-81.0","","8604","
        <div style=""display: flex; justify-content: center; align-items: center;"">
          <div style=""text-align: center; margin-right: 20px;"">
            <p style=""font-size: 24px; font-weight: bold;"">Event 1</p>
            <img src=""images/causal/using_technology_semantic/using_technology_semantic_7.png"" style=""width: 300px; height: auto;"">
          </div>
          <div style=""text-align: center; margin-left: 20px;"">
            <p style=""font-size: 24px; font-weight: bold;"">Event 2</p>
            <img src=""images/causal/using_technology_semantic/using_technology_semantic_9.png"" style=""width: 300px; height: auto;"">
          </div>
        </div>
        <p style=""text-align: center; margin-top: 20px;"">Did one event cause the other?</p>","2","7","9","true","using_technology_semantic"
"","","","","","html-button-response","82","1451091","0.0-82.0","","25922","
        <div style=""display: flex; justify-content: center; align-items: center;"">
          <div style=""text-align: center; margin-right: 20px;"">
            <p style=""font-size: 24px; font-weight: bold;"">Event 1</p>
            <img src=""images/causal/self_care_activities_semantic/self_care_activities_semantic_ten.png"" style=""width: 300px; height: auto;"">
          </div>
          <div style=""text-align: center; margin-left: 20px;"">
            <p style=""font-size: 24px; font-weight: bold;"">Event 2</p>
            <img src=""images/causal/self_care_activities_semantic/self_care_activities_semantic_6.png"" style=""width: 300px; height: auto;"">
          </div>
        </div>
        <p style=""text-align: center; margin-top: 20px;"">Did one event cause the other?</p>","2","10","6","true","self_care_activities_semantic"
"","","","","","html-button-response","83","1461634","0.0-83.0","","10542","
        <div style=""display: flex; justify-content: center; align-items: center;"">
          <div style=""text-align: center; margin-right: 20px;"">
            <p style=""font-size: 24px; font-weight: bold;"">Event 1</p>
            <img src=""images/causal/self_care_activities_semantic/self_care_activities_semantic_4.png"" style=""width: 300px; height: auto;"">
          </div>
          <div style=""text-align: center; margin-left: 20px;"">
            <p style=""font-size: 24px; font-weight: bold;"">Event 2</p>
            <img src=""images/causal/self_care_activities_semantic/self_care_activities_semantic_7.png"" style=""width: 300px; height: auto;"">
          </div>
        </div>
        <p style=""text-align: center; margin-top: 20px;"">Did one event cause the other?</p>","2","4","7","true","self_care_activities_semantic"
"","","","","","html-button-response","84","1468139","0.0-84.0","","6503","
        <div style=""display: flex; justify-content: center; align-items: center;"">
          <div style=""text-align: center; margin-right: 20px;"">
            <p style=""font-size: 24px; font-weight: bold;"">Event 1</p>
            <img src=""images/causal/using_technology_semantic/using_technology_semantic_ten.png"" style=""width: 300px; height: auto;"">
          </div>
          <div style=""text-align: center; margin-left: 20px;"">
            <p style=""font-size: 24px; font-weight: bold;"">Event 2</p>
            <img src=""images/causal/using_technology_semantic/using_technology_semantic_7.png"" style=""width: 300px; height: auto;"">
          </div>
        </div>
        <p style=""text-align: center; margin-top: 20px;"">Did one event cause the other?</p>","2","10","7","true","using_technology_semantic"
"","","","","","html-button-response","85","1474370","0.0-85.0","","6230","
        <div style=""display: flex; justify-content: center; align-items: center;"">
          <div style=""text-align: center; margin-right: 20px;"">
            <p style=""font-size: 24px; font-weight: bold;"">Event 1</p>
            <img src=""images/causal/saving_a_cat_causal/saving_a_cat_causal_9.png"" style=""width: 300px; height: auto;"">
          </div>
          <div style=""text-align: center; margin-left: 20px;"">
            <p style=""font-size: 24px; font-weight: bold;"">Event 2</p>
            <img src=""images/causal/saving_a_cat_causal/saving_a_cat_causal_7.png"" style=""width: 300px; height: auto;"">
          </div>
        </div>
        <p style=""text-align: center; margin-top: 20px;"">Did one event cause the other?</p>","1","9","7","true","saving_a_cat_causal"
"","","","","","html-button-response","86","1528030","0.0-86.0","","53659","
        <div style=""display: flex; justify-content: center; align-items: center;"">
          <div style=""text-align: center; margin-right: 20px;"">
            <p style=""font-size: 24px; font-weight: bold;"">Event 1</p>
            <img src=""images/causal/restaurant_scheme/restaurant_scheme_ten.png"" style=""width: 300px; height: auto;"">
          </div>
          <div style=""text-align: center; margin-left: 20px;"">
            <p style=""font-size: 24px; font-weight: bold;"">Event 2</p>
            <img src=""images/causal/restaurant_scheme/restaurant_scheme_7.png"" style=""width: 300px; height: auto;"">
          </div>
        </div>
        <p style=""text-align: center; margin-top: 20px;"">Did one event cause the other?</p>","1","10","7","true","restaurant_scheme"
"","","","","","html-button-response","87","1533871","0.0-87.0","","5840","
        <div style=""display: flex; justify-content: center; align-items: center;"">
          <div style=""text-align: center; margin-right: 20px;"">
            <p style=""font-size: 24px; font-weight: bold;"">Event 1</p>
            <img src=""images/causal/self_care_activities_semantic/self_care_activities_semantic_9.png"" style=""width: 300px; height: auto;"">
          </div>
          <div style=""text-align: center; margin-left: 20px;"">
            <p style=""font-size: 24px; font-weight: bold;"">Event 2</p>
            <img src=""images/causal/self_care_activities_semantic/self_care_activities_semantic_6.png"" style=""width: 300px; height: auto;"">
          </div>
        </div>
        <p style=""text-align: center; margin-top: 20px;"">Did one event cause the other?</p>","2","9","6","true","self_care_activities_semantic"
"","","","","","html-button-response","88","1593873","0.0-88.0","","null","
        <div style=""display: flex; justify-content: center; align-items: center;"">
          <div style=""text-align: center; margin-right: 20px;"">
            <p style=""font-size: 24px; font-weight: bold;"">Event 1</p>
            <img src=""images/causal/self_care_activities_semantic/self_care_activities_semantic_7.png"" style=""width: 300px; height: auto;"">
          </div>
          <div style=""text-align: center; margin-left: 20px;"">
            <p style=""font-size: 24px; font-weight: bold;"">Event 2</p>
            <img src=""images/causal/self_care_activities_semantic/self_care_activities_semantic_6.png"" style=""width: 300px; height: auto;"">
          </div>
        </div>
        <p style=""text-align: center; margin-top: 20px;"">Did one event cause the other?</p>","null","7","6","true","self_care_activities_semantic"
"","","","","","html-button-response","89","1653875","0.0-89.0","","null","
        <div style=""display: flex; justify-content: center; align-items: center;"">
          <div style=""text-align: center; margin-right: 20px;"">
            <p style=""font-size: 24px; font-weight: bold;"">Event 1</p>
            <img src=""images/causal/redecorating_a_house_semantic/redecorating_a_house_semantic_1.png"" style=""width: 300px; height: auto;"">
          </div>
          <div style=""text-align: center; margin-left: 20px;"">
            <p style=""font-size: 24px; font-weight: bold;"">Event 2</p>
            <img src=""images/causal/redecorating_a_house_semantic/redecorating_a_house_semantic_9.png"" style=""width: 300px; height: auto;"">
          </div>
        </div>
        <p style=""text-align: center; margin-top: 20px;"">Did one event cause the other?</p>","null","1","9","true","redecorating_a_house_semantic"
"","","","","","html-button-response","90","1659791","0.0-90.0","","5915","
        <div style=""display: flex; justify-content: center; align-items: center;"">
          <div style=""text-align: center; margin-right: 20px;"">
            <p style=""font-size: 24px; font-weight: bold;"">Event 1</p>
            <img src=""images/causal/using_technology_semantic/using_technology_semantic_8.png"" style=""width: 300px; height: auto;"">
          </div>
          <div style=""text-align: center; margin-left: 20px;"">
            <p style=""font-size: 24px; font-weight: bold;"">Event 2</p>
            <img src=""images/causal/using_technology_semantic/using_technology_semantic_9.png"" style=""width: 300px; height: auto;"">
          </div>
        </div>
        <p style=""text-align: center; margin-top: 20px;"">Did one event cause the other?</p>","2","8","9","true","using_technology_semantic"
"","","","","","html-button-response","91","1665484","0.0-91.0","","5692","
        <div style=""display: flex; justify-content: center; align-items: center;"">
          <div style=""text-align: center; margin-right: 20px;"">
            <p style=""font-size: 24px; font-weight: bold;"">Event 1</p>
            <img src=""images/causal/using_technology_semantic/using_technology_semantic_7.png"" style=""width: 300px; height: auto;"">
          </div>
          <div style=""text-align: center; margin-left: 20px;"">
            <p style=""font-size: 24px; font-weight: bold;"">Event 2</p>
            <img src=""images/causal/using_technology_semantic/using_technology_semantic_3.png"" style=""width: 300px; height: auto;"">
          </div>
        </div>
        <p style=""text-align: center; margin-top: 20px;"">Did one event cause the other?</p>","2","7","3","true","using_technology_semantic"
"","","","","","html-button-response","92","1671377","0.0-92.0","","5892","
        <div style=""display: flex; justify-content: center; align-items: center;"">
          <div style=""text-align: center; margin-right: 20px;"">
            <p style=""font-size: 24px; font-weight: bold;"">Event 1</p>
            <img src=""images/causal/saving_a_cat_causal/saving_a_cat_causal_ten.png"" style=""width: 300px; height: auto;"">
          </div>
          <div style=""text-align: center; margin-left: 20px;"">
            <p style=""font-size: 24px; font-weight: bold;"">Event 2</p>
            <img src=""images/causal/saving_a_cat_causal/saving_a_cat_causal_8.png"" style=""width: 300px; height: auto;"">
          </div>
        </div>
        <p style=""text-align: center; margin-top: 20px;"">Did one event cause the other?</p>","1","10","8","true","saving_a_cat_causal"
"","","","","","html-button-response","93","1681401","0.0-93.0","","10023","
        <div style=""display: flex; justify-content: center; align-items: center;"">
          <div style=""text-align: center; margin-right: 20px;"">
            <p style=""font-size: 24px; font-weight: bold;"">Event 1</p>
            <img src=""images/causal/redecorating_a_house_semantic/redecorating_a_house_semantic_ten.png"" style=""width: 300px; height: auto;"">
          </div>
          <div style=""text-align: center; margin-left: 20px;"">
            <p style=""font-size: 24px; font-weight: bold;"">Event 2</p>
            <img src=""images/causal/redecorating_a_house_semantic/redecorating_a_house_semantic_8.png"" style=""width: 300px; height: auto;"">
          </div>
        </div>
        <p style=""text-align: center; margin-top: 20px;"">Did one event cause the other?</p>","2","10","8","true","redecorating_a_house_semantic"
"","","","","","html-button-response","94","1689382","0.0-94.0","","7980","
        <div style=""display: flex; justify-content: center; align-items: center;"">
          <div style=""text-align: center; margin-right: 20px;"">
            <p style=""font-size: 24px; font-weight: bold;"">Event 1</p>
            <img src=""images/causal/self_care_activities_semantic/self_care_activities_semantic_7.png"" style=""width: 300px; height: auto;"">
          </div>
          <div style=""text-align: center; margin-left: 20px;"">
            <p style=""font-size: 24px; font-weight: bold;"">Event 2</p>
            <img src=""images/causal/self_care_activities_semantic/self_care_activities_semantic_2.png"" style=""width: 300px; height: auto;"">
          </div>
        </div>
        <p style=""text-align: center; margin-top: 20px;"">Did one event cause the other?</p>","2","7","2","true","self_care_activities_semantic"
"","","","","","html-button-response","95","1706639","0.0-95.0","","17256","
        <div style=""display: flex; justify-content: center; align-items: center;"">
          <div style=""text-align: center; margin-right: 20px;"">
            <p style=""font-size: 24px; font-weight: bold;"">Event 1</p>
            <img src=""images/causal/restaurant_scheme/restaurant_scheme_5.png"" style=""width: 300px; height: auto;"">
          </div>
          <div style=""text-align: center; margin-left: 20px;"">
            <p style=""font-size: 24px; font-weight: bold;"">Event 2</p>
            <img src=""images/causal/restaurant_scheme/restaurant_scheme_2.png"" style=""width: 300px; height: auto;"">
          </div>
        </div>
        <p style=""text-align: center; margin-top: 20px;"">Did one event cause the other?</p>","1","5","2","true","restaurant_scheme"
"","","","","","html-button-response","96","1712574","0.0-96.0","","5934","
        <div style=""display: flex; justify-content: center; align-items: center;"">
          <div style=""text-align: center; margin-right: 20px;"">
            <p style=""font-size: 24px; font-weight: bold;"">Event 1</p>
            <img src=""images/causal/supermarket_scheme/supermarket_scheme_3.png"" style=""width: 300px; height: auto;"">
          </div>
          <div style=""text-align: center; margin-left: 20px;"">
            <p style=""font-size: 24px; font-weight: bold;"">Event 2</p>
            <img src=""images/causal/supermarket_scheme/supermarket_scheme_2.png"" style=""width: 300px; height: auto;"">
          </div>
        </div>
        <p style=""text-align: center; margin-top: 20px;"">Did one event cause the other?</p>","1","3","2","true","supermarket_scheme"
"","","","","","html-button-response","97","1721356","0.0-97.0","","8779","
        <div style=""display: flex; justify-content: center; align-items: center;"">
          <div style=""text-align: center; margin-right: 20px;"">
            <p style=""font-size: 24px; font-weight: bold;"">Event 1</p>
            <img src=""images/causal/restaurant_scheme/restaurant_scheme_4.png"" style=""width: 300px; height: auto;"">
          </div>
          <div style=""text-align: center; margin-left: 20px;"">
            <p style=""font-size: 24px; font-weight: bold;"">Event 2</p>
            <img src=""images/causal/restaurant_scheme/restaurant_scheme_9.png"" style=""width: 300px; height: auto;"">
          </div>
        </div>
        <p style=""text-align: center; margin-top: 20px;"">Did one event cause the other?</p>","0","4","9","true","restaurant_scheme"
"","","","","","html-button-response","98","1727108","0.0-98.0","","5751","
        <div style=""display: flex; justify-content: center; align-items: center;"">
          <div style=""text-align: center; margin-right: 20px;"">
            <p style=""font-size: 24px; font-weight: bold;"">Event 1</p>
            <img src=""images/causal/self_care_activities_semantic/self_care_activities_semantic_1.png"" style=""width: 300px; height: auto;"">
          </div>
          <div style=""text-align: center; margin-left: 20px;"">
            <p style=""font-size: 24px; font-weight: bold;"">Event 2</p>
            <img src=""images/causal/self_care_activities_semantic/self_care_activities_semantic_4.png"" style=""width: 300px; height: auto;"">
          </div>
        </div>
        <p style=""text-align: center; margin-top: 20px;"">Did one event cause the other?</p>","1","1","4","true","self_care_activities_semantic"
"","","","","","html-button-response","99","1732777","0.0-99.0","","5668","
        <div style=""display: flex; justify-content: center; align-items: center;"">
          <div style=""text-align: center; margin-right: 20px;"">
            <p style=""font-size: 24px; font-weight: bold;"">Event 1</p>
            <img src=""images/causal/the_performance_causal/the_performance_causal_9.png"" style=""width: 300px; height: auto;"">
          </div>
          <div style=""text-align: center; margin-left: 20px;"">
            <p style=""font-size: 24px; font-weight: bold;"">Event 2</p>
            <img src=""images/causal/the_performance_causal/the_performance_causal_8.png"" style=""width: 300px; height: auto;"">
          </div>
        </div>
        <p style=""text-align: center; margin-top: 20px;"">Did one event cause the other?</p>","1","9","8","true","the_performance_causal"
"","","","","","html-button-response","100","1738455","0.0-100.0","","5677","
        <div style=""display: flex; justify-content: center; align-items: center;"">
          <div style=""text-align: center; margin-right: 20px;"">
            <p style=""font-size: 24px; font-weight: bold;"">Event 1</p>
            <img src=""images/causal/self_care_activities_semantic/self_care_activities_semantic_5.png"" style=""width: 300px; height: auto;"">
          </div>
          <div style=""text-align: center; margin-left: 20px;"">
            <p style=""font-size: 24px; font-weight: bold;"">Event 2</p>
            <img src=""images/causal/self_care_activities_semantic/self_care_activities_semantic_ten.png"" style=""width: 300px; height: auto;"">
          </div>
        </div>
        <p style=""text-align: center; margin-top: 20px;"">Did one event cause the other?</p>","2","5","10","true","self_care_activities_semantic"
"","","","","","html-button-response","101","1798467","0.0-101.0","","null","
        <div style=""display: flex; justify-content: center; align-items: center;"">
          <div style=""text-align: center; margin-right: 20px;"">
            <p style=""font-size: 24px; font-weight: bold;"">Event 1</p>
            <img src=""images/causal/restaurant_scheme/restaurant_scheme_1.png"" style=""width: 300px; height: auto;"">
          </div>
          <div style=""text-align: center; margin-left: 20px;"">
            <p style=""font-size: 24px; font-weight: bold;"">Event 2</p>
            <img src=""images/causal/restaurant_scheme/restaurant_scheme_6.png"" style=""width: 300px; height: auto;"">
          </div>
        </div>
        <p style=""text-align: center; margin-top: 20px;"">Did one event cause the other?</p>","null","1","6","true","restaurant_scheme"
"","","","","","html-button-response","102","1805693","0.0-102.0","","7224","
        <div style=""display: flex; justify-content: center; align-items: center;"">
          <div style=""text-align: center; margin-right: 20px;"">
            <p style=""font-size: 24px; font-weight: bold;"">Event 1</p>
            <img src=""images/causal/visiting_cities_semantic/visiting_cities_semantic_ten.png"" style=""width: 300px; height: auto;"">
          </div>
          <div style=""text-align: center; margin-left: 20px;"">
            <p style=""font-size: 24px; font-weight: bold;"">Event 2</p>
            <img src=""images/causal/visiting_cities_semantic/visiting_cities_semantic_8.png"" style=""width: 300px; height: auto;"">
          </div>
        </div>
        <p style=""text-align: center; margin-top: 20px;"">Did one event cause the other?</p>","2","10","8","true","visiting_cities_semantic"
"","","","","","html-button-response","103","1810892","0.0-103.0","","5198","
        <div style=""display: flex; justify-content: center; align-items: center;"">
          <div style=""text-align: center; margin-right: 20px;"">
            <p style=""font-size: 24px; font-weight: bold;"">Event 1</p>
            <img src=""images/causal/visiting_cities_semantic/visiting_cities_semantic_4.png"" style=""width: 300px; height: auto;"">
          </div>
          <div style=""text-align: center; margin-left: 20px;"">
            <p style=""font-size: 24px; font-weight: bold;"">Event 2</p>
            <img src=""images/causal/visiting_cities_semantic/visiting_cities_semantic_6.png"" style=""width: 300px; height: auto;"">
          </div>
        </div>
        <p style=""text-align: center; margin-top: 20px;"">Did one event cause the other?</p>","2","4","6","true","visiting_cities_semantic"
"","","","","","html-button-response","104","1816790","0.0-104.0","","5897","
        <div style=""display: flex; justify-content: center; align-items: center;"">
          <div style=""text-align: center; margin-right: 20px;"">
            <p style=""font-size: 24px; font-weight: bold;"">Event 1</p>
            <img src=""images/causal/self_care_activities_semantic/self_care_activities_semantic_1.png"" style=""width: 300px; height: auto;"">
          </div>
          <div style=""text-align: center; margin-left: 20px;"">
            <p style=""font-size: 24px; font-weight: bold;"">Event 2</p>
            <img src=""images/causal/self_care_activities_semantic/self_care_activities_semantic_6.png"" style=""width: 300px; height: auto;"">
          </div>
        </div>
        <p style=""text-align: center; margin-top: 20px;"">Did one event cause the other?</p>","2","1","6","true","self_care_activities_semantic"
"","","","","","html-button-response","105","1825833","0.0-105.0","","9042","
        <div style=""display: flex; justify-content: center; align-items: center;"">
          <div style=""text-align: center; margin-right: 20px;"">
            <p style=""font-size: 24px; font-weight: bold;"">Event 1</p>
            <img src=""images/causal/the_performance_causal/the_performance_causal_5.png"" style=""width: 300px; height: auto;"">
          </div>
          <div style=""text-align: center; margin-left: 20px;"">
            <p style=""font-size: 24px; font-weight: bold;"">Event 2</p>
            <img src=""images/causal/the_performance_causal/the_performance_causal_1.png"" style=""width: 300px; height: auto;"">
          </div>
        </div>
        <p style=""text-align: center; margin-top: 20px;"">Did one event cause the other?</p>","2","5","1","true","the_performance_causal"
"","","","","","html-button-response","106","1838150","0.0-106.0","","12316","
        <div style=""display: flex; justify-content: center; align-items: center;"">
          <div style=""text-align: center; margin-right: 20px;"">
            <p style=""font-size: 24px; font-weight: bold;"">Event 1</p>
            <img src=""images/causal/using_technology_semantic/using_technology_semantic_5.png"" style=""width: 300px; height: auto;"">
          </div>
          <div style=""text-align: center; margin-left: 20px;"">
            <p style=""font-size: 24px; font-weight: bold;"">Event 2</p>
            <img src=""images/causal/using_technology_semantic/using_technology_semantic_6.png"" style=""width: 300px; height: auto;"">
          </div>
        </div>
        <p style=""text-align: center; margin-top: 20px;"">Did one event cause the other?</p>","2","5","6","true","using_technology_semantic"
"","","","","","html-button-response","107","1843887","0.0-107.0","","5735","
        <div style=""display: flex; justify-content: center; align-items: center;"">
          <div style=""text-align: center; margin-right: 20px;"">
            <p style=""font-size: 24px; font-weight: bold;"">Event 1</p>
            <img src=""images/causal/supermarket_scheme/supermarket_scheme_9.png"" style=""width: 300px; height: auto;"">
          </div>
          <div style=""text-align: center; margin-left: 20px;"">
            <p style=""font-size: 24px; font-weight: bold;"">Event 2</p>
            <img src=""images/causal/supermarket_scheme/supermarket_scheme_5.png"" style=""width: 300px; height: auto;"">
          </div>
        </div>
        <p style=""text-align: center; margin-top: 20px;"">Did one event cause the other?</p>","1","9","5","true","supermarket_scheme"
"","","","","","html-button-response","108","1860678","0.0-108.0","","16790","
        <div style=""display: flex; justify-content: center; align-items: center;"">
          <div style=""text-align: center; margin-right: 20px;"">
            <p style=""font-size: 24px; font-weight: bold;"">Event 1</p>
            <img src=""images/causal/self_care_activities_semantic/self_care_activities_semantic_2.png"" style=""width: 300px; height: auto;"">
          </div>
          <div style=""text-align: center; margin-left: 20px;"">
            <p style=""font-size: 24px; font-weight: bold;"">Event 2</p>
            <img src=""images/causal/self_care_activities_semantic/self_care_activities_semantic_3.png"" style=""width: 300px; height: auto;"">
          </div>
        </div>
        <p style=""text-align: center; margin-top: 20px;"">Did one event cause the other?</p>","2","2","3","true","self_care_activities_semantic"
"","","","","","html-button-response","109","1866424","0.0-109.0","","5745","
        <div style=""display: flex; justify-content: center; align-items: center;"">
          <div style=""text-align: center; margin-right: 20px;"">
            <p style=""font-size: 24px; font-weight: bold;"">Event 1</p>
            <img src=""images/causal/supermarket_scheme/supermarket_scheme_5.png"" style=""width: 300px; height: auto;"">
          </div>
          <div style=""text-align: center; margin-left: 20px;"">
            <p style=""font-size: 24px; font-weight: bold;"">Event 2</p>
            <img src=""images/causal/supermarket_scheme/supermarket_scheme_3.png"" style=""width: 300px; height: auto;"">
          </div>
        </div>
        <p style=""text-align: center; margin-top: 20px;"">Did one event cause the other?</p>","1","5","3","true","supermarket_scheme"
"","","","","","html-button-response","110","1876098","0.0-110.0","","9673","
        <div style=""display: flex; justify-content: center; align-items: center;"">
          <div style=""text-align: center; margin-right: 20px;"">
            <p style=""font-size: 24px; font-weight: bold;"">Event 1</p>
            <img src=""images/causal/using_technology_semantic/using_technology_semantic_8.png"" style=""width: 300px; height: auto;"">
          </div>
          <div style=""text-align: center; margin-left: 20px;"">
            <p style=""font-size: 24px; font-weight: bold;"">Event 2</p>
            <img src=""images/causal/using_technology_semantic/using_technology_semantic_5.png"" style=""width: 300px; height: auto;"">
          </div>
        </div>
        <p style=""text-align: center; margin-top: 20px;"">Did one event cause the other?</p>","2","8","5","true","using_technology_semantic"
"","","","","","html-button-response","111","1917280","0.0-111.0","","41181","
        <div style=""display: flex; justify-content: center; align-items: center;"">
          <div style=""text-align: center; margin-right: 20px;"">
            <p style=""font-size: 24px; font-weight: bold;"">Event 1</p>
            <img src=""images/causal/saving_a_cat_causal/saving_a_cat_causal_7.png"" style=""width: 300px; height: auto;"">
          </div>
          <div style=""text-align: center; margin-left: 20px;"">
            <p style=""font-size: 24px; font-weight: bold;"">Event 2</p>
            <img src=""images/causal/saving_a_cat_causal/saving_a_cat_causal_3.png"" style=""width: 300px; height: auto;"">
          </div>
        </div>
        <p style=""text-align: center; margin-top: 20px;"">Did one event cause the other?</p>","1","7","3","true","saving_a_cat_causal"
"","","","","","html-button-response","112","1923464","0.0-112.0","","6182","
        <div style=""display: flex; justify-content: center; align-items: center;"">
          <div style=""text-align: center; margin-right: 20px;"">
            <p style=""font-size: 24px; font-weight: bold;"">Event 1</p>
            <img src=""images/causal/visiting_cities_semantic/visiting_cities_semantic_5.png"" style=""width: 300px; height: auto;"">
          </div>
          <div style=""text-align: center; margin-left: 20px;"">
            <p style=""font-size: 24px; font-weight: bold;"">Event 2</p>
            <img src=""images/causal/visiting_cities_semantic/visiting_cities_semantic_2.png"" style=""width: 300px; height: auto;"">
          </div>
        </div>
        <p style=""text-align: center; margin-top: 20px;"">Did one event cause the other?</p>","2","5","2","true","visiting_cities_semantic"
"","","","","","html-button-response","113","1930531","0.0-113.0","","7066","
        <div style=""display: flex; justify-content: center; align-items: center;"">
          <div style=""text-align: center; margin-right: 20px;"">
            <p style=""font-size: 24px; font-weight: bold;"">Event 1</p>
            <img src=""images/causal/restaurant_scheme/restaurant_scheme_6.png"" style=""width: 300px; height: auto;"">
          </div>
          <div style=""text-align: center; margin-left: 20px;"">
            <p style=""font-size: 24px; font-weight: bold;"">Event 2</p>
            <img src=""images/causal/restaurant_scheme/restaurant_scheme_2.png"" style=""width: 300px; height: auto;"">
          </div>
        </div>
        <p style=""text-align: center; margin-top: 20px;"">Did one event cause the other?</p>","1","6","2","true","restaurant_scheme"
"","","","","","html-button-response","114","1939439","0.0-114.0","","8906","
        <div style=""display: flex; justify-content: center; align-items: center;"">
          <div style=""text-align: center; margin-right: 20px;"">
            <p style=""font-size: 24px; font-weight: bold;"">Event 1</p>
            <img src=""images/causal/supermarket_scheme/supermarket_scheme_4.png"" style=""width: 300px; height: auto;"">
          </div>
          <div style=""text-align: center; margin-left: 20px;"">
