"success","timeout","failed_images","failed_audio","failed_video","trial_type","trial_index","time_elapsed","internal_node_id","view_history","rt","stimulus","response","firstImageNumber","secondImageNumber","response_made","stimulus_type"
"true","false","[]","[]","[]","preload","0","280461","0.0-0.0","","","","","","","",""
"","","","","","instructions","1","328786","0.0-1.0","[{""page_index"":0,""viewing_time"":48325}]","48325","","","","","",""
"","","","","","html-button-response","2","336955","0.0-2.0","","8168","
        <div style=""display: flex; justify-content: center; align-items: center;"">
          <div style=""text-align: center; margin-right: 20px;"">
            <p style=""font-size: 24px; font-weight: bold;"">Event 1<p>
            <img src=""images/instructions/1.png"" style=""width: 300px; height: auto;"">
          </div>
          <div style=""text-align: center; margin-left: 20px;"">
            <p style=""font-size: 24px; font-weight: bold;"">Event 2</p>
            <img src=""images/instructions/2.png"" style=""width: 300px; height: auto;"">
          </div>
        </div>
        <p style=""text-align: center; margin-top: 20px;"">Did one event cause the other?</p>","0","","","",""
"","","","","","html-button-response","3","339989","0.0-3.0","","3033","
        <div style=""display: flex; justify-content: center; align-items: center;"">
          <div style=""text-align: center; margin-right: 20px;"">
            <p style=""font-size: 24px; font-weight: bold;"">Event 1<p>
            <img src=""images/instructions/1.png"" style=""width: 300px; height: auto;"">
          </div>
          <div style=""text-align: center; margin-left: 20px;"">
            <p style=""font-size: 24px; font-weight: bold;"">Event 2</p>
            <img src=""images/instructions/2.png"" style=""width: 300px; height: auto;"">
          </div>
        </div>
        <h2>Correct Answer</h2>
        <p>The correct answer is: <strong>event 1 causes event 2</strong>.</p>
        <p>Click ""Next"" to proceed to the next example.</p>","0","","","",""
"","","","","","html-button-response","4","346343","0.0-4.0","","6353","
   <div style=""display: flex; justify-content: center; align-items: center;"">
          <div style=""text-align: center; margin-right: 20px;"">
            <p style=""font-size: 24px; font-weight: bold;"">Event 1<p>
            <img src=""images/instructions/2.png"" style=""width: 300px; height: auto;"">
          </div>
          <div style=""text-align: center; margin-left: 20px;"">
            <p style=""font-size: 24px; font-weight: bold;"">Event 2</p>
            <img src=""images/instructions/1.png"" style=""width: 300px; height: auto;"">
          </div>
        </div>
        <p style=""text-align: center; margin-top: 20px;"">Did one event cause the other?</p>","1","","","",""
"","","","","","html-button-response","5","349287","0.0-5.0","","2944","
        <div style=""display: flex; justify-content: center; align-items: center;"">
          <div style=""text-align: center; margin-right: 20px;"">
            <p style=""font-size: 24px; font-weight: bold;"">Event 1<p>
            <img src=""images/instructions/2.png"" style=""width: 300px; height: auto;"">
          </div>
          <div style=""text-align: center; margin-left: 20px;"">
            <p style=""font-size: 24px; font-weight: bold;"">Event 2</p>
            <img src=""images/instructions/1.png"" style=""width: 300px; height: auto;"">
          </div>
        </div>
        <h2>Correct Answer</h2>
        <p>The correct answer is: <strong>event 2 causes event 1</strong>.</p>
        <p>Click ""Next"" to proceed to the next example.</p>","0","","","",""
"","","","","","html-button-response","6","355037","0.0-6.0","","5749","
        <div style=""display: flex; justify-content: center; align-items: center;"">
          <div style=""text-align: center; margin-right: 20px;"">
            <p style=""font-size: 24px; font-weight: bold;"">Event 1<p>
            <img src=""images/instructions/5.png"" style=""width: 300px; height: auto;"">
          </div>
          <div style=""text-align: center; margin-left: 20px;"">
            <p style=""font-size: 24px; font-weight: bold;"">Event 2</p>
            <img src=""images/instructions/6.png"" style=""width: 300px; height: auto;"">
          </div>
        </div>
        <p style=""text-align: center; margin-top: 20px;"">Did one event cause the other?</p>","2","","","",""
"","","","","","html-button-response","7","356675","0.0-7.0","","1638","
        <div style=""display: flex; justify-content: center; align-items: center;"">
          <div style=""text-align: center; margin-right: 20px;"">
            <p style=""font-size: 24px; font-weight: bold;"">Event 1<p>
            <img src=""images/instructions/5.png"" style=""width: 300px; height: auto;"">
          </div>
          <div style=""text-align: center; margin-left: 20px;"">
            <p style=""font-size: 24px; font-weight: bold;"">Event 2</p>
            <img src=""images/instructions/6.png"" style=""width: 300px; height: auto;"">
          </div>
        </div>
        <h2>Correct Answer</h2>
        <p>The correct answer is: <strong>events are unrelated</strong>.</p>
        <p>Click ""Next"" to proceed to the experiment.</p>","0","","","",""
"","","","","","html-button-response","8","359284","0.0-8.0","","2609","
        <h2>Get Ready!</h2>
        <p>You have completed the examples. The experiment is about to begin.</p>
        <p>Click ""Start"" to begin the experiment.</p>","0","","","",""
"","","","","","html-button-response","9","365412","0.0-9.0","","6127","
        <div style=""display: flex; justify-content: center; align-items: center;"">
          <div style=""text-align: center; margin-right: 20px;"">
            <p style=""font-size: 24px; font-weight: bold;"">Event 1</p>
            <img src=""images/causal/coin_causal/coin_causal_5.png"" style=""width: 300px; height: auto;"">
          </div>
          <div style=""text-align: center; margin-left: 20px;"">
            <p style=""font-size: 24px; font-weight: bold;"">Event 2</p>
            <img src=""images/causal/coin_causal/coin_causal_6.png"" style=""width: 300px; height: auto;"">
          </div>
        </div>
        <p style=""text-align: center; margin-top: 20px;"">Did one event cause the other?</p>","2","5","6","true","coin_causal"
"","","","","","html-button-response","10","372197","0.0-10.0","","6785","
        <div style=""display: flex; justify-content: center; align-items: center;"">
          <div style=""text-align: center; margin-right: 20px;"">
            <p style=""font-size: 24px; font-weight: bold;"">Event 1</p>
            <img src=""images/causal/coin_causal/coin_causal_2.png"" style=""width: 300px; height: auto;"">
          </div>
          <div style=""text-align: center; margin-left: 20px;"">
            <p style=""font-size: 24px; font-weight: bold;"">Event 2</p>
            <img src=""images/causal/coin_causal/coin_causal_8.png"" style=""width: 300px; height: auto;"">
          </div>
        </div>
        <p style=""text-align: center; margin-top: 20px;"">Did one event cause the other?</p>","2","2","8","true","coin_causal"
"","","","","","html-button-response","11","378821","0.0-11.0","","6623","
        <div style=""display: flex; justify-content: center; align-items: center;"">
          <div style=""text-align: center; margin-right: 20px;"">
            <p style=""font-size: 24px; font-weight: bold;"">Event 1</p>
            <img src=""images/causal/dinner_party_scheme/dinner_party_scheme_1.png"" style=""width: 300px; height: auto;"">
          </div>
          <div style=""text-align: center; margin-left: 20px;"">
            <p style=""font-size: 24px; font-weight: bold;"">Event 2</p>
            <img src=""images/causal/dinner_party_scheme/dinner_party_scheme_6.png"" style=""width: 300px; height: auto;"">
          </div>
        </div>
        <p style=""text-align: center; margin-top: 20px;"">Did one event cause the other?</p>","0","1","6","true","dinner_party_scheme"
"","","","","","html-button-response","12","386281","0.0-12.0","","7459","
        <div style=""display: flex; justify-content: center; align-items: center;"">
          <div style=""text-align: center; margin-right: 20px;"">
            <p style=""font-size: 24px; font-weight: bold;"">Event 1</p>
            <img src=""images/causal/cat_care_semantic/cat_care_semantic_ten.png"" style=""width: 300px; height: auto;"">
          </div>
          <div style=""text-align: center; margin-left: 20px;"">
            <p style=""font-size: 24px; font-weight: bold;"">Event 2</p>
            <img src=""images/causal/cat_care_semantic/cat_care_semantic_5.png"" style=""width: 300px; height: auto;"">
          </div>
        </div>
        <p style=""text-align: center; margin-top: 20px;"">Did one event cause the other?</p>","2","10","5","true","cat_care_semantic"
"","","","","","html-button-response","13","392073","0.0-13.0","","5792","
        <div style=""display: flex; justify-content: center; align-items: center;"">
          <div style=""text-align: center; margin-right: 20px;"">
            <p style=""font-size: 24px; font-weight: bold;"">Event 1</p>
            <img src=""images/causal/creative_activities_semantic/creative_activities_semantic_1.png"" style=""width: 300px; height: auto;"">
          </div>
          <div style=""text-align: center; margin-left: 20px;"">
            <p style=""font-size: 24px; font-weight: bold;"">Event 2</p>
            <img src=""images/causal/creative_activities_semantic/creative_activities_semantic_2.png"" style=""width: 300px; height: auto;"">
          </div>
        </div>
        <p style=""text-align: center; margin-top: 20px;"">Did one event cause the other?</p>","2","1","2","true","creative_activities_semantic"
"","","","","","html-button-response","14","397696","0.0-14.0","","5623","
        <div style=""display: flex; justify-content: center; align-items: center;"">
          <div style=""text-align: center; margin-right: 20px;"">
            <p style=""font-size: 24px; font-weight: bold;"">Event 1</p>
            <img src=""images/causal/creative_activities_semantic/creative_activities_semantic_1.png"" style=""width: 300px; height: auto;"">
          </div>
          <div style=""text-align: center; margin-left: 20px;"">
            <p style=""font-size: 24px; font-weight: bold;"">Event 2</p>
            <img src=""images/causal/creative_activities_semantic/creative_activities_semantic_3.png"" style=""width: 300px; height: auto;"">
          </div>
        </div>
        <p style=""text-align: center; margin-top: 20px;"">Did one event cause the other?</p>","2","1","3","true","creative_activities_semantic"
"","","","","","html-button-response","15","404451","0.0-15.0","","6755","
        <div style=""display: flex; justify-content: center; align-items: center;"">
          <div style=""text-align: center; margin-right: 20px;"">
            <p style=""font-size: 24px; font-weight: bold;"">Event 1</p>
            <img src=""images/causal/flight_scheme/flight_scheme_2.png"" style=""width: 300px; height: auto;"">
          </div>
          <div style=""text-align: center; margin-left: 20px;"">
            <p style=""font-size: 24px; font-weight: bold;"">Event 2</p>
            <img src=""images/causal/flight_scheme/flight_scheme_ten.png"" style=""width: 300px; height: auto;"">
          </div>
        </div>
        <p style=""text-align: center; margin-top: 20px;"">Did one event cause the other?</p>","0","2","10","true","flight_scheme"
"","","","","","html-button-response","16","412299","0.0-16.0","","7848","
        <div style=""display: flex; justify-content: center; align-items: center;"">
          <div style=""text-align: center; margin-right: 20px;"">
            <p style=""font-size: 24px; font-weight: bold;"">Event 1</p>
            <img src=""images/causal/dinner_party_scheme/dinner_party_scheme_8.png"" style=""width: 300px; height: auto;"">
          </div>
          <div style=""text-align: center; margin-left: 20px;"">
            <p style=""font-size: 24px; font-weight: bold;"">Event 2</p>
            <img src=""images/causal/dinner_party_scheme/dinner_party_scheme_3.png"" style=""width: 300px; height: auto;"">
          </div>
        </div>
        <p style=""text-align: center; margin-top: 20px;"">Did one event cause the other?</p>","1","8","3","true","dinner_party_scheme"
"","","","","","html-button-response","17","421719","0.0-17.0","","9419","
        <div style=""display: flex; justify-content: center; align-items: center;"">
          <div style=""text-align: center; margin-right: 20px;"">
            <p style=""font-size: 24px; font-weight: bold;"">Event 1</p>
            <img src=""images/causal/housework_semantic/housework_semantic_8.png"" style=""width: 300px; height: auto;"">
          </div>
          <div style=""text-align: center; margin-left: 20px;"">
            <p style=""font-size: 24px; font-weight: bold;"">Event 2</p>
            <img src=""images/causal/housework_semantic/housework_semantic_1.png"" style=""width: 300px; height: auto;"">
          </div>
        </div>
        <p style=""text-align: center; margin-top: 20px;"">Did one event cause the other?</p>","1","8","1","true","housework_semantic"
"","","","","","html-button-response","18","427878","0.0-18.0","","6159","
        <div style=""display: flex; justify-content: center; align-items: center;"">
          <div style=""text-align: center; margin-right: 20px;"">
            <p style=""font-size: 24px; font-weight: bold;"">Event 1</p>
            <img src=""images/causal/creative_activities_semantic/creative_activities_semantic_7.png"" style=""width: 300px; height: auto;"">
          </div>
          <div style=""text-align: center; margin-left: 20px;"">
            <p style=""font-size: 24px; font-weight: bold;"">Event 2</p>
            <img src=""images/causal/creative_activities_semantic/creative_activities_semantic_2.png"" style=""width: 300px; height: auto;"">
          </div>
        </div>
        <p style=""text-align: center; margin-top: 20px;"">Did one event cause the other?</p>","2","7","2","true","creative_activities_semantic"
"","","","","","html-button-response","19","434928","0.0-19.0","","7049","
        <div style=""display: flex; justify-content: center; align-items: center;"">
          <div style=""text-align: center; margin-right: 20px;"">
            <p style=""font-size: 24px; font-weight: bold;"">Event 1</p>
            <img src=""images/causal/flight_scheme/flight_scheme_5.png"" style=""width: 300px; height: auto;"">
          </div>
          <div style=""text-align: center; margin-left: 20px;"">
            <p style=""font-size: 24px; font-weight: bold;"">Event 2</p>
            <img src=""images/causal/flight_scheme/flight_scheme_6.png"" style=""width: 300px; height: auto;"">
          </div>
        </div>
        <p style=""text-align: center; margin-top: 20px;"">Did one event cause the other?</p>","0","5","6","true","flight_scheme"
"","","","","","html-button-response","20","446921","0.0-20.0","","11993","
        <div style=""display: flex; justify-content: center; align-items: center;"">
          <div style=""text-align: center; margin-right: 20px;"">
            <p style=""font-size: 24px; font-weight: bold;"">Event 1</p>
            <img src=""images/causal/cat_care_semantic/cat_care_semantic_4.png"" style=""width: 300px; height: auto;"">
          </div>
          <div style=""text-align: center; margin-left: 20px;"">
            <p style=""font-size: 24px; font-weight: bold;"">Event 2</p>
            <img src=""images/causal/cat_care_semantic/cat_care_semantic_ten.png"" style=""width: 300px; height: auto;"">
          </div>
        </div>
        <p style=""text-align: center; margin-top: 20px;"">Did one event cause the other?</p>","2","4","10","true","cat_care_semantic"
"","","","","","html-button-response","21","456632","0.0-21.0","","9710","
        <div style=""display: flex; justify-content: center; align-items: center;"">
          <div style=""text-align: center; margin-right: 20px;"">
            <p style=""font-size: 24px; font-weight: bold;"">Event 1</p>
            <img src=""images/causal/creative_activities_semantic/creative_activities_semantic_2.png"" style=""width: 300px; height: auto;"">
          </div>
          <div style=""text-align: center; margin-left: 20px;"">
            <p style=""font-size: 24px; font-weight: bold;"">Event 2</p>
            <img src=""images/causal/creative_activities_semantic/creative_activities_semantic_3.png"" style=""width: 300px; height: auto;"">
          </div>
        </div>
        <p style=""text-align: center; margin-top: 20px;"">Did one event cause the other?</p>","0","2","3","true","creative_activities_semantic"
"","","","","","html-button-response","22","466126","0.0-22.0","","9493","
        <div style=""display: flex; justify-content: center; align-items: center;"">
          <div style=""text-align: center; margin-right: 20px;"">
            <p style=""font-size: 24px; font-weight: bold;"">Event 1</p>
            <img src=""images/causal/coin_causal/coin_causal_2.png"" style=""width: 300px; height: auto;"">
          </div>
          <div style=""text-align: center; margin-left: 20px;"">
            <p style=""font-size: 24px; font-weight: bold;"">Event 2</p>
            <img src=""images/causal/coin_causal/coin_causal_5.png"" style=""width: 300px; height: auto;"">
          </div>
        </div>
        <p style=""text-align: center; margin-top: 20px;"">Did one event cause the other?</p>","0","2","5","true","coin_causal"
"","","","","","html-button-response","23","506382","0.0-23.0","","40256","
        <div style=""display: flex; justify-content: center; align-items: center;"">
          <div style=""text-align: center; margin-right: 20px;"">
            <p style=""font-size: 24px; font-weight: bold;"">Event 1</p>
            <img src=""images/causal/cat_care_semantic/cat_care_semantic_1.png"" style=""width: 300px; height: auto;"">
          </div>
          <div style=""text-align: center; margin-left: 20px;"">
            <p style=""font-size: 24px; font-weight: bold;"">Event 2</p>
            <img src=""images/causal/cat_care_semantic/cat_care_semantic_7.png"" style=""width: 300px; height: auto;"">
          </div>
        </div>
        <p style=""text-align: center; margin-top: 20px;"">Did one event cause the other?</p>","2","1","7","true","cat_care_semantic"
"","","","","","html-button-response","24","515249","0.0-24.0","","8866","
        <div style=""display: flex; justify-content: center; align-items: center;"">
          <div style=""text-align: center; margin-right: 20px;"">
            <p style=""font-size: 24px; font-weight: bold;"">Event 1</p>
            <img src=""images/causal/coin_causal/coin_causal_8.png"" style=""width: 300px; height: auto;"">
          </div>
          <div style=""text-align: center; margin-left: 20px;"">
            <p style=""font-size: 24px; font-weight: bold;"">Event 2</p>
            <img src=""images/causal/coin_causal/coin_causal_5.png"" style=""width: 300px; height: auto;"">
          </div>
        </div>
        <p style=""text-align: center; margin-top: 20px;"">Did one event cause the other?</p>","0","8","5","true","coin_causal"
"","","","","","html-button-response","25","521039","0.0-25.0","","5790","
        <div style=""display: flex; justify-content: center; align-items: center;"">
          <div style=""text-align: center; margin-right: 20px;"">
            <p style=""font-size: 24px; font-weight: bold;"">Event 1</p>
            <img src=""images/causal/dog_causal/dog_causal_2.png"" style=""width: 300px; height: auto;"">
          </div>
          <div style=""text-align: center; margin-left: 20px;"">
            <p style=""font-size: 24px; font-weight: bold;"">Event 2</p>
            <img src=""images/causal/dog_causal/dog_causal_1.png"" style=""width: 300px; height: auto;"">
          </div>
        </div>
        <p style=""text-align: center; margin-top: 20px;"">Did one event cause the other?</p>","1","2","1","true","dog_causal"
"","","","","","html-button-response","26","530611","0.0-26.0","","9571","
        <div style=""display: flex; justify-content: center; align-items: center;"">
          <div style=""text-align: center; margin-right: 20px;"">
            <p style=""font-size: 24px; font-weight: bold;"">Event 1</p>
            <img src=""images/causal/cat_care_semantic/cat_care_semantic_4.png"" style=""width: 300px; height: auto;"">
          </div>
          <div style=""text-align: center; margin-left: 20px;"">
            <p style=""font-size: 24px; font-weight: bold;"">Event 2</p>
            <img src=""images/causal/cat_care_semantic/cat_care_semantic_3.png"" style=""width: 300px; height: auto;"">
          </div>
        </div>
        <p style=""text-align: center; margin-top: 20px;"">Did one event cause the other?</p>","2","4","3","true","cat_care_semantic"
"","","","","","html-button-response","27","536737","0.0-27.0","","6125","
        <div style=""display: flex; justify-content: center; align-items: center;"">
          <div style=""text-align: center; margin-right: 20px;"">
            <p style=""font-size: 24px; font-weight: bold;"">Event 1</p>
            <img src=""images/causal/creative_activities_semantic/creative_activities_semantic_9.png"" style=""width: 300px; height: auto;"">
          </div>
          <div style=""text-align: center; margin-left: 20px;"">
            <p style=""font-size: 24px; font-weight: bold;"">Event 2</p>
            <img src=""images/causal/creative_activities_semantic/creative_activities_semantic_ten.png"" style=""width: 300px; height: auto;"">
          </div>
        </div>
        <p style=""text-align: center; margin-top: 20px;"">Did one event cause the other?</p>","2","9","10","true","creative_activities_semantic"
"","","","","","html-button-response","28","545539","0.0-28.0","","8801","
        <div style=""display: flex; justify-content: center; align-items: center;"">
          <div style=""text-align: center; margin-right: 20px;"">
            <p style=""font-size: 24px; font-weight: bold;"">Event 1</p>
            <img src=""images/causal/cat_care_semantic/cat_care_semantic_9.png"" style=""width: 300px; height: auto;"">
          </div>
          <div style=""text-align: center; margin-left: 20px;"">
            <p style=""font-size: 24px; font-weight: bold;"">Event 2</p>
            <img src=""images/causal/cat_care_semantic/cat_care_semantic_4.png"" style=""width: 300px; height: auto;"">
          </div>
        </div>
        <p style=""text-align: center; margin-top: 20px;"">Did one event cause the other?</p>","1","9","4","true","cat_care_semantic"
"","","","","","html-button-response","29","561387","0.0-29.0","","15848","
        <div style=""display: flex; justify-content: center; align-items: center;"">
          <div style=""text-align: center; margin-right: 20px;"">
            <p style=""font-size: 24px; font-weight: bold;"">Event 1</p>
            <img src=""images/causal/coin_causal/coin_causal_7.png"" style=""width: 300px; height: auto;"">
          </div>
          <div style=""text-align: center; margin-left: 20px;"">
            <p style=""font-size: 24px; font-weight: bold;"">Event 2</p>
            <img src=""images/causal/coin_causal/coin_causal_3.png"" style=""width: 300px; height: auto;"">
          </div>
        </div>
        <p style=""text-align: center; margin-top: 20px;"">Did one event cause the other?</p>","1","7","3","true","coin_causal"
"","","","","","html-button-response","30","569481","0.0-30.0","","8094","
        <div style=""display: flex; justify-content: center; align-items: center;"">
          <div style=""text-align: center; margin-right: 20px;"">
            <p style=""font-size: 24px; font-weight: bold;"">Event 1</p>
            <img src=""images/causal/housework_semantic/housework_semantic_7.png"" style=""width: 300px; height: auto;"">
          </div>
          <div style=""text-align: center; margin-left: 20px;"">
            <p style=""font-size: 24px; font-weight: bold;"">Event 2</p>
            <img src=""images/causal/housework_semantic/housework_semantic_6.png"" style=""width: 300px; height: auto;"">
          </div>
        </div>
        <p style=""text-align: center; margin-top: 20px;"">Did one event cause the other?</p>","2","7","6","true","housework_semantic"
"","","","","","html-button-response","31","575129","0.0-31.0","","5647","
        <div style=""display: flex; justify-content: center; align-items: center;"">
          <div style=""text-align: center; margin-right: 20px;"">
            <p style=""font-size: 24px; font-weight: bold;"">Event 1</p>
            <img src=""images/causal/cat_care_semantic/cat_care_semantic_8.png"" style=""width: 300px; height: auto;"">
          </div>
          <div style=""text-align: center; margin-left: 20px;"">
            <p style=""font-size: 24px; font-weight: bold;"">Event 2</p>
            <img src=""images/causal/cat_care_semantic/cat_care_semantic_4.png"" style=""width: 300px; height: auto;"">
          </div>
        </div>
        <p style=""text-align: center; margin-top: 20px;"">Did one event cause the other?</p>","1","8","4","true","cat_care_semantic"
"","","","","","html-button-response","32","581706","0.0-32.0","","6577","
        <div style=""display: flex; justify-content: center; align-items: center;"">
          <div style=""text-align: center; margin-right: 20px;"">
            <p style=""font-size: 24px; font-weight: bold;"">Event 1</p>
            <img src=""images/causal/dog_causal/dog_causal_7.png"" style=""width: 300px; height: auto;"">
          </div>
          <div style=""text-align: center; margin-left: 20px;"">
            <p style=""font-size: 24px; font-weight: bold;"">Event 2</p>
            <img src=""images/causal/dog_causal/dog_causal_2.png"" style=""width: 300px; height: auto;"">
          </div>
        </div>
        <p style=""text-align: center; margin-top: 20px;"">Did one event cause the other?</p>","2","7","2","true","dog_causal"
"","","","","","html-button-response","33","588643","0.0-33.0","","6937","
        <div style=""display: flex; justify-content: center; align-items: center;"">
          <div style=""text-align: center; margin-right: 20px;"">
            <p style=""font-size: 24px; font-weight: bold;"">Event 1</p>
            <img src=""images/causal/dinner_party_scheme/dinner_party_scheme_7.png"" style=""width: 300px; height: auto;"">
          </div>
          <div style=""text-align: center; margin-left: 20px;"">
            <p style=""font-size: 24px; font-weight: bold;"">Event 2</p>
            <img src=""images/causal/dinner_party_scheme/dinner_party_scheme_9.png"" style=""width: 300px; height: auto;"">
          </div>
        </div>
        <p style=""text-align: center; margin-top: 20px;"">Did one event cause the other?</p>","0","7","9","true","dinner_party_scheme"
"","","","","","html-button-response","34","609859","0.0-34.0","","21216","
        <div style=""display: flex; justify-content: center; align-items: center;"">
          <div style=""text-align: center; margin-right: 20px;"">
            <p style=""font-size: 24px; font-weight: bold;"">Event 1</p>
            <img src=""images/causal/exploring_nature_semantic/exploring_nature_semantic_1.png"" style=""width: 300px; height: auto;"">
          </div>
          <div style=""text-align: center; margin-left: 20px;"">
            <p style=""font-size: 24px; font-weight: bold;"">Event 2</p>
            <img src=""images/causal/exploring_nature_semantic/exploring_nature_semantic_3.png"" style=""width: 300px; height: auto;"">
          </div>
        </div>
        <p style=""text-align: center; margin-top: 20px;"">Did one event cause the other?</p>","0","1","3","true","exploring_nature_semantic"
"","","","","","html-button-response","35","616504","0.0-35.0","","6644","
        <div style=""display: flex; justify-content: center; align-items: center;"">
          <div style=""text-align: center; margin-right: 20px;"">
            <p style=""font-size: 24px; font-weight: bold;"">Event 1</p>
            <img src=""images/causal/coin_causal/coin_causal_9.png"" style=""width: 300px; height: auto;"">
          </div>
          <div style=""text-align: center; margin-left: 20px;"">
            <p style=""font-size: 24px; font-weight: bold;"">Event 2</p>
            <img src=""images/causal/coin_causal/coin_causal_6.png"" style=""width: 300px; height: auto;"">
          </div>
        </div>
        <p style=""text-align: center; margin-top: 20px;"">Did one event cause the other?</p>","2","9","6","true","coin_causal"
"","","","","","html-button-response","36","622111","0.0-36.0","","5607","
        <div style=""display: flex; justify-content: center; align-items: center;"">
          <div style=""text-align: center; margin-right: 20px;"">
            <p style=""font-size: 24px; font-weight: bold;"">Event 1</p>
            <img src=""images/causal/coin_causal/coin_causal_9.png"" style=""width: 300px; height: auto;"">
          </div>
          <div style=""text-align: center; margin-left: 20px;"">
            <p style=""font-size: 24px; font-weight: bold;"">Event 2</p>
            <img src=""images/causal/coin_causal/coin_causal_5.png"" style=""width: 300px; height: auto;"">
          </div>
        </div>
        <p style=""text-align: center; margin-top: 20px;"">Did one event cause the other?</p>","2","9","5","true","coin_causal"
"","","","","","html-button-response","37","633918","0.0-37.0","","11807","
        <div style=""display: flex; justify-content: center; align-items: center;"">
          <div style=""text-align: center; margin-right: 20px;"">
            <p style=""font-size: 24px; font-weight: bold;"">Event 1</p>
            <img src=""images/causal/exploring_nature_semantic/exploring_nature_semantic_2.png"" style=""width: 300px; height: auto;"">
          </div>
          <div style=""text-align: center; margin-left: 20px;"">
            <p style=""font-size: 24px; font-weight: bold;"">Event 2</p>
            <img src=""images/causal/exploring_nature_semantic/exploring_nature_semantic_1.png"" style=""width: 300px; height: auto;"">
          </div>
        </div>
        <p style=""text-align: center; margin-top: 20px;"">Did one event cause the other?</p>","2","2","1","true","exploring_nature_semantic"
"","","","","","html-button-response","38","639936","0.0-38.0","","6018","
        <div style=""display: flex; justify-content: center; align-items: center;"">
          <div style=""text-align: center; margin-right: 20px;"">
            <p style=""font-size: 24px; font-weight: bold;"">Event 1</p>
            <img src=""images/causal/flight_scheme/flight_scheme_2.png"" style=""width: 300px; height: auto;"">
          </div>
          <div style=""text-align: center; margin-left: 20px;"">
            <p style=""font-size: 24px; font-weight: bold;"">Event 2</p>
            <img src=""images/causal/flight_scheme/flight_scheme_1.png"" style=""width: 300px; height: auto;"">
          </div>
        </div>
        <p style=""text-align: center; margin-top: 20px;"">Did one event cause the other?</p>","1","2","1","true","flight_scheme"
"","","","","","html-button-response","39","646154","0.0-39.0","","6217","
        <div style=""display: flex; justify-content: center; align-items: center;"">
          <div style=""text-align: center; margin-right: 20px;"">
            <p style=""font-size: 24px; font-weight: bold;"">Event 1</p>
            <img src=""images/causal/creative_activities_semantic/creative_activities_semantic_1.png"" style=""width: 300px; height: auto;"">
          </div>
          <div style=""text-align: center; margin-left: 20px;"">
            <p style=""font-size: 24px; font-weight: bold;"">Event 2</p>
            <img src=""images/causal/creative_activities_semantic/creative_activities_semantic_4.png"" style=""width: 300px; height: auto;"">
          </div>
        </div>
        <p style=""text-align: center; margin-top: 20px;"">Did one event cause the other?</p>","2","1","4","true","creative_activities_semantic"
"","","","","","html-button-response","40","654493","0.0-40.0","","8338","
        <div style=""display: flex; justify-content: center; align-items: center;"">
          <div style=""text-align: center; margin-right: 20px;"">
            <p style=""font-size: 24px; font-weight: bold;"">Event 1</p>
            <img src=""images/causal/housework_semantic/housework_semantic_ten.png"" style=""width: 300px; height: auto;"">
          </div>
          <div style=""text-align: center; margin-left: 20px;"">
            <p style=""font-size: 24px; font-weight: bold;"">Event 2</p>
            <img src=""images/causal/housework_semantic/housework_semantic_8.png"" style=""width: 300px; height: auto;"">
          </div>
        </div>
        <p style=""text-align: center; margin-top: 20px;"">Did one event cause the other?</p>","2","10","8","true","housework_semantic"
"","","","","","html-button-response","41","670196","0.0-41.0","","15703","
        <div style=""display: flex; justify-content: center; align-items: center;"">
          <div style=""text-align: center; margin-right: 20px;"">
            <p style=""font-size: 24px; font-weight: bold;"">Event 1</p>
            <img src=""images/causal/coin_causal/coin_causal_ten.png"" style=""width: 300px; height: auto;"">
          </div>
          <div style=""text-align: center; margin-left: 20px;"">
            <p style=""font-size: 24px; font-weight: bold;"">Event 2</p>
            <img src=""images/causal/coin_causal/coin_causal_2.png"" style=""width: 300px; height: auto;"">
          </div>
        </div>
        <p style=""text-align: center; margin-top: 20px;"">Did one event cause the other?</p>","2","10","2","true","coin_causal"
"","","","","","html-button-response","42","675807","0.0-42.0","","5610","
        <div style=""display: flex; justify-content: center; align-items: center;"">
          <div style=""text-align: center; margin-right: 20px;"">
            <p style=""font-size: 24px; font-weight: bold;"">Event 1</p>
            <img src=""images/causal/dinner_party_scheme/dinner_party_scheme_9.png"" style=""width: 300px; height: auto;"">
          </div>
          <div style=""text-align: center; margin-left: 20px;"">
            <p style=""font-size: 24px; font-weight: bold;"">Event 2</p>
            <img src=""images/causal/dinner_party_scheme/dinner_party_scheme_2.png"" style=""width: 300px; height: auto;"">
          </div>
        </div>
        <p style=""text-align: center; margin-top: 20px;"">Did one event cause the other?</p>","2","9","2","true","dinner_party_scheme"
"","","","","","html-button-response","43","681531","0.0-43.0","","5723","
        <div style=""display: flex; justify-content: center; align-items: center;"">
          <div style=""text-align: center; margin-right: 20px;"">
            <p style=""font-size: 24px; font-weight: bold;"">Event 1</p>
            <img src=""images/causal/dinner_party_scheme/dinner_party_scheme_8.png"" style=""width: 300px; height: auto;"">
          </div>
          <div style=""text-align: center; margin-left: 20px;"">
            <p style=""font-size: 24px; font-weight: bold;"">Event 2</p>
            <img src=""images/causal/dinner_party_scheme/dinner_party_scheme_7.png"" style=""width: 300px; height: auto;"">
          </div>
        </div>
        <p style=""text-align: center; margin-top: 20px;"">Did one event cause the other?</p>","1","8","7","true","dinner_party_scheme"
"","","","","","html-button-response","44","696508","0.0-44.0","","14977","
        <div style=""display: flex; justify-content: center; align-items: center;"">
          <div style=""text-align: center; margin-right: 20px;"">
            <p style=""font-size: 24px; font-weight: bold;"">Event 1</p>
            <img src=""images/causal/exploring_nature_semantic/exploring_nature_semantic_5.png"" style=""width: 300px; height: auto;"">
          </div>
          <div style=""text-align: center; margin-left: 20px;"">
            <p style=""font-size: 24px; font-weight: bold;"">Event 2</p>
            <img src=""images/causal/exploring_nature_semantic/exploring_nature_semantic_8.png"" style=""width: 300px; height: auto;"">
          </div>
        </div>
        <p style=""text-align: center; margin-top: 20px;"">Did one event cause the other?</p>","2","5","8","true","exploring_nature_semantic"
"","","","","","html-button-response","45","704158","0.0-45.0","","7649","
        <div style=""display: flex; justify-content: center; align-items: center;"">
          <div style=""text-align: center; margin-right: 20px;"">
            <p style=""font-size: 24px; font-weight: bold;"">Event 1</p>
            <img src=""images/causal/housework_semantic/housework_semantic_1.png"" style=""width: 300px; height: auto;"">
          </div>
          <div style=""text-align: center; margin-left: 20px;"">
            <p style=""font-size: 24px; font-weight: bold;"">Event 2</p>
            <img src=""images/causal/housework_semantic/housework_semantic_6.png"" style=""width: 300px; height: auto;"">
          </div>
        </div>
        <p style=""text-align: center; margin-top: 20px;"">Did one event cause the other?</p>","2","1","6","true","housework_semantic"
"","","","","","html-button-response","46","709820","0.0-46.0","","5662","
        <div style=""display: flex; justify-content: center; align-items: center;"">
          <div style=""text-align: center; margin-right: 20px;"">
            <p style=""font-size: 24px; font-weight: bold;"">Event 1</p>
            <img src=""images/causal/creative_activities_semantic/creative_activities_semantic_8.png"" style=""width: 300px; height: auto;"">
          </div>
          <div style=""text-align: center; margin-left: 20px;"">
            <p style=""font-size: 24px; font-weight: bold;"">Event 2</p>
            <img src=""images/causal/creative_activities_semantic/creative_activities_semantic_4.png"" style=""width: 300px; height: auto;"">
          </div>
        </div>
        <p style=""text-align: center; margin-top: 20px;"">Did one event cause the other?</p>","2","8","4","true","creative_activities_semantic"
"","","","","","html-button-response","47","720814","0.0-47.0","","10993","
        <div style=""display: flex; justify-content: center; align-items: center;"">
          <div style=""text-align: center; margin-right: 20px;"">
            <p style=""font-size: 24px; font-weight: bold;"">Event 1</p>
            <img src=""images/causal/coin_causal/coin_causal_4.png"" style=""width: 300px; height: auto;"">
          </div>
          <div style=""text-align: center; margin-left: 20px;"">
            <p style=""font-size: 24px; font-weight: bold;"">Event 2</p>
            <img src=""images/causal/coin_causal/coin_causal_9.png"" style=""width: 300px; height: auto;"">
          </div>
        </div>
        <p style=""text-align: center; margin-top: 20px;"">Did one event cause the other?</p>","2","4","9","true","coin_causal"
"","","","","","html-button-response","48","732677","0.0-48.0","","11863","
        <div style=""display: flex; justify-content: center; align-items: center;"">
          <div style=""text-align: center; margin-right: 20px;"">
            <p style=""font-size: 24px; font-weight: bold;"">Event 1</p>
            <img src=""images/causal/dog_causal/dog_causal_4.png"" style=""width: 300px; height: auto;"">
          </div>
          <div style=""text-align: center; margin-left: 20px;"">
            <p style=""font-size: 24px; font-weight: bold;"">Event 2</p>
            <img src=""images/causal/dog_causal/dog_causal_1.png"" style=""width: 300px; height: auto;"">
          </div>
        </div>
        <p style=""text-align: center; margin-top: 20px;"">Did one event cause the other?</p>","1","4","1","true","dog_causal"
"","","","","","html-button-response","49","739731","0.0-49.0","","7054","
        <div style=""display: flex; justify-content: center; align-items: center;"">
          <div style=""text-align: center; margin-right: 20px;"">
            <p style=""font-size: 24px; font-weight: bold;"">Event 1</p>
            <img src=""images/causal/coin_causal/coin_causal_6.png"" style=""width: 300px; height: auto;"">
          </div>
          <div style=""text-align: center; margin-left: 20px;"">
            <p style=""font-size: 24px; font-weight: bold;"">Event 2</p>
            <img src=""images/causal/coin_causal/coin_causal_3.png"" style=""width: 300px; height: auto;"">
          </div>
        </div>
        <p style=""text-align: center; margin-top: 20px;"">Did one event cause the other?</p>","2","6","3","true","coin_causal"
"","","","","","html-button-response","50","748042","0.0-50.0","","8310","
        <div style=""display: flex; justify-content: center; align-items: center;"">
          <div style=""text-align: center; margin-right: 20px;"">
            <p style=""font-size: 24px; font-weight: bold;"">Event 1</p>
            <img src=""images/causal/exploring_nature_semantic/exploring_nature_semantic_2.png"" style=""width: 300px; height: auto;"">
          </div>
          <div style=""text-align: center; margin-left: 20px;"">
            <p style=""font-size: 24px; font-weight: bold;"">Event 2</p>
            <img src=""images/causal/exploring_nature_semantic/exploring_nature_semantic_4.png"" style=""width: 300px; height: auto;"">
          </div>
        </div>
        <p style=""text-align: center; margin-top: 20px;"">Did one event cause the other?</p>","2","2","4","true","exploring_nature_semantic"
"","","","","","html-button-response","51","754534","0.0-51.0","","6492","
        <div style=""display: flex; justify-content: center; align-items: center;"">
          <div style=""text-align: center; margin-right: 20px;"">
            <p style=""font-size: 24px; font-weight: bold;"">Event 1</p>
            <img src=""images/causal/cat_care_semantic/cat_care_semantic_6.png"" style=""width: 300px; height: auto;"">
          </div>
          <div style=""text-align: center; margin-left: 20px;"">
            <p style=""font-size: 24px; font-weight: bold;"">Event 2</p>
            <img src=""images/causal/cat_care_semantic/cat_care_semantic_9.png"" style=""width: 300px; height: auto;"">
          </div>
        </div>
        <p style=""text-align: center; margin-top: 20px;"">Did one event cause the other?</p>","2","6","9","true","cat_care_semantic"
"","","","","","html-button-response","52","765770","0.0-52.0","","11236","
        <div style=""display: flex; justify-content: center; align-items: center;"">
          <div style=""text-align: center; margin-right: 20px;"">
            <p style=""font-size: 24px; font-weight: bold;"">Event 1</p>
            <img src=""images/causal/cat_care_semantic/cat_care_semantic_5.png"" style=""width: 300px; height: auto;"">
          </div>
          <div style=""text-align: center; margin-left: 20px;"">
            <p style=""font-size: 24px; font-weight: bold;"">Event 2</p>
            <img src=""images/causal/cat_care_semantic/cat_care_semantic_7.png"" style=""width: 300px; height: auto;"">
          </div>
        </div>
        <p style=""text-align: center; margin-top: 20px;"">Did one event cause the other?</p>","2","5","7","true","cat_care_semantic"
"","","","","","html-button-response","53","771298","0.0-53.0","","5528","
        <div style=""display: flex; justify-content: center; align-items: center;"">
          <div style=""text-align: center; margin-right: 20px;"">
            <p style=""font-size: 24px; font-weight: bold;"">Event 1</p>
            <img src=""images/causal/dinner_party_scheme/dinner_party_scheme_3.png"" style=""width: 300px; height: auto;"">
          </div>
          <div style=""text-align: center; margin-left: 20px;"">
            <p style=""font-size: 24px; font-weight: bold;"">Event 2</p>
            <img src=""images/causal/dinner_party_scheme/dinner_party_scheme_6.png"" style=""width: 300px; height: auto;"">
          </div>
        </div>
        <p style=""text-align: center; margin-top: 20px;"">Did one event cause the other?</p>","2","3","6","true","dinner_party_scheme"
"","","","","","html-button-response","54","777044","0.0-54.0","","5745","
        <div style=""display: flex; justify-content: center; align-items: center;"">
          <div style=""text-align: center; margin-right: 20px;"">
            <p style=""font-size: 24px; font-weight: bold;"">Event 1</p>
            <img src=""images/causal/dinner_party_scheme/dinner_party_scheme_2.png"" style=""width: 300px; height: auto;"">
          </div>
          <div style=""text-align: center; margin-left: 20px;"">
            <p style=""font-size: 24px; font-weight: bold;"">Event 2</p>
            <img src=""images/causal/dinner_party_scheme/dinner_party_scheme_4.png"" style=""width: 300px; height: auto;"">
          </div>
        </div>
        <p style=""text-align: center; margin-top: 20px;"">Did one event cause the other?</p>","0","2","4","true","dinner_party_scheme"
"","","","","","html-button-response","55","783282","0.0-55.0","","6238","
        <div style=""display: flex; justify-content: center; align-items: center;"">
          <div style=""text-align: center; margin-right: 20px;"">
            <p style=""font-size: 24px; font-weight: bold;"">Event 1</p>
            <img src=""images/causal/coin_causal/coin_causal_5.png"" style=""width: 300px; height: auto;"">
          </div>
          <div style=""text-align: center; margin-left: 20px;"">
            <p style=""font-size: 24px; font-weight: bold;"">Event 2</p>
            <img src=""images/causal/coin_causal/coin_causal_3.png"" style=""width: 300px; height: auto;"">
          </div>
        </div>
        <p style=""text-align: center; margin-top: 20px;"">Did one event cause the other?</p>","1","5","3","true","coin_causal"
"","","","","","html-button-response","56","788833","0.0-56.0","","5550","
        <div style=""display: flex; justify-content: center; align-items: center;"">
          <div style=""text-align: center; margin-right: 20px;"">
            <p style=""font-size: 24px; font-weight: bold;"">Event 1</p>
            <img src=""images/causal/dog_causal/dog_causal_1.png"" style=""width: 300px; height: auto;"">
          </div>
          <div style=""text-align: center; margin-left: 20px;"">
            <p style=""font-size: 24px; font-weight: bold;"">Event 2</p>
            <img src=""images/causal/dog_causal/dog_causal_7.png"" style=""width: 300px; height: auto;"">
          </div>
        </div>
        <p style=""text-align: center; margin-top: 20px;"">Did one event cause the other?</p>","2","1","7","true","dog_causal"
"","","","","","html-button-response","57","794592","0.0-57.0","","5758","
        <div style=""display: flex; justify-content: center; align-items: center;"">
          <div style=""text-align: center; margin-right: 20px;"">
            <p style=""font-size: 24px; font-weight: bold;"">Event 1</p>
            <img src=""images/causal/coin_causal/coin_causal_ten.png"" style=""width: 300px; height: auto;"">
          </div>
          <div style=""text-align: center; margin-left: 20px;"">
            <p style=""font-size: 24px; font-weight: bold;"">Event 2</p>
            <img src=""images/causal/coin_causal/coin_causal_6.png"" style=""width: 300px; height: auto;"">
          </div>
        </div>
        <p style=""text-align: center; margin-top: 20px;"">Did one event cause the other?</p>","2","10","6","true","coin_causal"
"","","","","","html-button-response","58","800194","0.0-58.0","","5602","
        <div style=""display: flex; justify-content: center; align-items: center;"">
          <div style=""text-align: center; margin-right: 20px;"">
            <p style=""font-size: 24px; font-weight: bold;"">Event 1</p>
            <img src=""images/causal/creative_activities_semantic/creative_activities_semantic_ten.png"" style=""width: 300px; height: auto;"">
          </div>
          <div style=""text-align: center; margin-left: 20px;"">
            <p style=""font-size: 24px; font-weight: bold;"">Event 2</p>
            <img src=""images/causal/creative_activities_semantic/creative_activities_semantic_1.png"" style=""width: 300px; height: auto;"">
          </div>
        </div>
        <p style=""text-align: center; margin-top: 20px;"">Did one event cause the other?</p>","2","10","1","true","creative_activities_semantic"
"","","","","","html-button-response","59","806612","0.0-59.0","","6417","
        <div style=""display: flex; justify-content: center; align-items: center;"">
          <div style=""text-align: center; margin-right: 20px;"">
            <p style=""font-size: 24px; font-weight: bold;"">Event 1</p>
            <img src=""images/causal/coin_causal/coin_causal_ten.png"" style=""width: 300px; height: auto;"">
          </div>
          <div style=""text-align: center; margin-left: 20px;"">
            <p style=""font-size: 24px; font-weight: bold;"">Event 2</p>
            <img src=""images/causal/coin_causal/coin_causal_8.png"" style=""width: 300px; height: auto;"">
          </div>
        </div>
        <p style=""text-align: center; margin-top: 20px;"">Did one event cause the other?</p>","1","10","8","true","coin_causal"
"","","","","","html-button-response","60","812256","0.0-60.0","","5643","
        <div style=""display: flex; justify-content: center; align-items: center;"">
          <div style=""text-align: center; margin-right: 20px;"">
            <p style=""font-size: 24px; font-weight: bold;"">Event 1</p>
            <img src=""images/causal/dinner_party_scheme/dinner_party_scheme_9.png"" style=""width: 300px; height: auto;"">
          </div>
          <div style=""text-align: center; margin-left: 20px;"">
            <p style=""font-size: 24px; font-weight: bold;"">Event 2</p>
            <img src=""images/causal/dinner_party_scheme/dinner_party_scheme_4.png"" style=""width: 300px; height: auto;"">
          </div>
        </div>
        <p style=""text-align: center; margin-top: 20px;"">Did one event cause the other?</p>","2","9","4","true","dinner_party_scheme"
"","","","","","html-button-response","61","828368","0.0-61.0","","16111","
        <div style=""display: flex; justify-content: center; align-items: center;"">
          <div style=""text-align: center; margin-right: 20px;"">
            <p style=""font-size: 24px; font-weight: bold;"">Event 1</p>
            <img src=""images/causal/coin_causal/coin_causal_6.png"" style=""width: 300px; height: auto;"">
          </div>
          <div style=""text-align: center; margin-left: 20px;"">
            <p style=""font-size: 24px; font-weight: bold;"">Event 2</p>
            <img src=""images/causal/coin_causal/coin_causal_8.png"" style=""width: 300px; height: auto;"">
          </div>
        </div>
        <p style=""text-align: center; margin-top: 20px;"">Did one event cause the other?</p>","1","6","8","true","coin_causal"
"","","","","","html-button-response","62","834302","0.0-62.0","","5934","
        <div style=""display: flex; justify-content: center; align-items: center;"">
          <div style=""text-align: center; margin-right: 20px;"">
            <p style=""font-size: 24px; font-weight: bold;"">Event 1</p>
            <img src=""images/causal/flight_scheme/flight_scheme_ten.png"" style=""width: 300px; height: auto;"">
          </div>
          <div style=""text-align: center; margin-left: 20px;"">
            <p style=""font-size: 24px; font-weight: bold;"">Event 2</p>
            <img src=""images/causal/flight_scheme/flight_scheme_7.png"" style=""width: 300px; height: auto;"">
          </div>
        </div>
        <p style=""text-align: center; margin-top: 20px;"">Did one event cause the other?</p>","2","10","7","true","flight_scheme"
"","","","","","html-button-response","63","840214","0.0-63.0","","5912","
        <div style=""display: flex; justify-content: center; align-items: center;"">
          <div style=""text-align: center; margin-right: 20px;"">
            <p style=""font-size: 24px; font-weight: bold;"">Event 1</p>
            <img src=""images/causal/exploring_nature_semantic/exploring_nature_semantic_7.png"" style=""width: 300px; height: auto;"">
          </div>
          <div style=""text-align: center; margin-left: 20px;"">
            <p style=""font-size: 24px; font-weight: bold;"">Event 2</p>
            <img src=""images/causal/exploring_nature_semantic/exploring_nature_semantic_8.png"" style=""width: 300px; height: auto;"">
          </div>
        </div>
        <p style=""text-align: center; margin-top: 20px;"">Did one event cause the other?</p>","2","7","8","true","exploring_nature_semantic"
"","","","","","html-button-response","64","845842","0.0-64.0","","5627","
        <div style=""display: flex; justify-content: center; align-items: center;"">
          <div style=""text-align: center; margin-right: 20px;"">
            <p style=""font-size: 24px; font-weight: bold;"">Event 1</p>
            <img src=""images/causal/flight_scheme/flight_scheme_9.png"" style=""width: 300px; height: auto;"">
          </div>
          <div style=""text-align: center; margin-left: 20px;"">
            <p style=""font-size: 24px; font-weight: bold;"">Event 2</p>
            <img src=""images/causal/flight_scheme/flight_scheme_2.png"" style=""width: 300px; height: auto;"">
          </div>
        </div>
        <p style=""text-align: center; margin-top: 20px;"">Did one event cause the other?</p>","2","9","2","true","flight_scheme"
"","","","","","html-button-response","65","851464","0.0-65.0","","5621","
        <div style=""display: flex; justify-content: center; align-items: center;"">
          <div style=""text-align: center; margin-right: 20px;"">
            <p style=""font-size: 24px; font-weight: bold;"">Event 1</p>
            <img src=""images/causal/flight_scheme/flight_scheme_2.png"" style=""width: 300px; height: auto;"">
          </div>
          <div style=""text-align: center; margin-left: 20px;"">
            <p style=""font-size: 24px; font-weight: bold;"">Event 2</p>
            <img src=""images/causal/flight_scheme/flight_scheme_3.png"" style=""width: 300px; height: auto;"">
          </div>
        </div>
        <p style=""text-align: center; margin-top: 20px;"">Did one event cause the other?</p>","0","2","3","true","flight_scheme"
"","","","","","html-button-response","66","857066","0.0-66.0","","5602","
        <div style=""display: flex; justify-content: center; align-items: center;"">
          <div style=""text-align: center; margin-right: 20px;"">
            <p style=""font-size: 24px; font-weight: bold;"">Event 1</p>
            <img src=""images/causal/flight_scheme/flight_scheme_1.png"" style=""width: 300px; height: auto;"">
          </div>
          <div style=""text-align: center; margin-left: 20px;"">
            <p style=""font-size: 24px; font-weight: bold;"">Event 2</p>
            <img src=""images/causal/flight_scheme/flight_scheme_5.png"" style=""width: 300px; height: auto;"">
          </div>
        </div>
        <p style=""text-align: center; margin-top: 20px;"">Did one event cause the other?</p>","0","1","5","true","flight_scheme"
"","","","","","html-button-response","67","863164","0.0-67.0","","6098","
        <div style=""display: flex; justify-content: center; align-items: center;"">
          <div style=""text-align: center; margin-right: 20px;"">
            <p style=""font-size: 24px; font-weight: bold;"">Event 1</p>
            <img src=""images/causal/dog_causal/dog_causal_3.png"" style=""width: 300px; height: auto;"">
          </div>
          <div style=""text-align: center; margin-left: 20px;"">
            <p style=""font-size: 24px; font-weight: bold;"">Event 2</p>
            <img src=""images/causal/dog_causal/dog_causal_6.png"" style=""width: 300px; height: auto;"">
          </div>
        </div>
        <p style=""text-align: center; margin-top: 20px;"">Did one event cause the other?</p>","2","3","6","true","dog_causal"
"","","","","","html-button-response","68","868576","0.0-68.0","","5411","
        <div style=""display: flex; justify-content: center; align-items: center;"">
          <div style=""text-align: center; margin-right: 20px;"">
            <p style=""font-size: 24px; font-weight: bold;"">Event 1</p>
            <img src=""images/causal/exploring_nature_semantic/exploring_nature_semantic_5.png"" style=""width: 300px; height: auto;"">
          </div>
          <div style=""text-align: center; margin-left: 20px;"">
            <p style=""font-size: 24px; font-weight: bold;"">Event 2</p>
            <img src=""images/causal/exploring_nature_semantic/exploring_nature_semantic_7.png"" style=""width: 300px; height: auto;"">
          </div>
        </div>
        <p style=""text-align: center; margin-top: 20px;"">Did one event cause the other?</p>","2","5","7","true","exploring_nature_semantic"
"","","","","","html-button-response","69","876095","0.0-69.0","","7519","
        <div style=""display: flex; justify-content: center; align-items: center;"">
          <div style=""text-align: center; margin-right: 20px;"">
            <p style=""font-size: 24px; font-weight: bold;"">Event 1</p>
            <img src=""images/causal/exploring_nature_semantic/exploring_nature_semantic_ten.png"" style=""width: 300px; height: auto;"">
          </div>
          <div style=""text-align: center; margin-left: 20px;"">
            <p style=""font-size: 24px; font-weight: bold;"">Event 2</p>
            <img src=""images/causal/exploring_nature_semantic/exploring_nature_semantic_5.png"" style=""width: 300px; height: auto;"">
          </div>
        </div>
        <p style=""text-align: center; margin-top: 20px;"">Did one event cause the other?</p>","2","10","5","true","exploring_nature_semantic"
"","","","","","html-button-response","70","881643","0.0-70.0","","5547","
        <div style=""display: flex; justify-content: center; align-items: center;"">
          <div style=""text-align: center; margin-right: 20px;"">
            <p style=""font-size: 24px; font-weight: bold;"">Event 1</p>
            <img src=""images/causal/housework_semantic/housework_semantic_6.png"" style=""width: 300px; height: auto;"">
          </div>
          <div style=""text-align: center; margin-left: 20px;"">
            <p style=""font-size: 24px; font-weight: bold;"">Event 2</p>
            <img src=""images/causal/housework_semantic/housework_semantic_8.png"" style=""width: 300px; height: auto;"">
          </div>
        </div>
        <p style=""text-align: center; margin-top: 20px;"">Did one event cause the other?</p>","2","6","8","true","housework_semantic"
"","","","","","html-button-response","71","887194","0.0-71.0","","5551","
        <div style=""display: flex; justify-content: center; align-items: center;"">
          <div style=""text-align: center; margin-right: 20px;"">
            <p style=""font-size: 24px; font-weight: bold;"">Event 1</p>
            <img src=""images/causal/dog_causal/dog_causal_4.png"" style=""width: 300px; height: auto;"">
          </div>
          <div style=""text-align: center; margin-left: 20px;"">
            <p style=""font-size: 24px; font-weight: bold;"">Event 2</p>
            <img src=""images/causal/dog_causal/dog_causal_3.png"" style=""width: 300px; height: auto;"">
          </div>
        </div>
        <p style=""text-align: center; margin-top: 20px;"">Did one event cause the other?</p>","1","4","3","true","dog_causal"
"","","","","","html-button-response","72","893022","0.0-72.0","","5828","
        <div style=""display: flex; justify-content: center; align-items: center;"">
          <div style=""text-align: center; margin-right: 20px;"">
            <p style=""font-size: 24px; font-weight: bold;"">Event 1</p>
            <img src=""images/causal/coin_causal/coin_causal_7.png"" style=""width: 300px; height: auto;"">
          </div>
          <div style=""text-align: center; margin-left: 20px;"">
            <p style=""font-size: 24px; font-weight: bold;"">Event 2</p>
            <img src=""images/causal/coin_causal/coin_causal_1.png"" style=""width: 300px; height: auto;"">
          </div>
        </div>
        <p style=""text-align: center; margin-top: 20px;"">Did one event cause the other?</p>","2","7","1","true","coin_causal"
"","","","","","html-button-response","73","898675","0.0-73.0","","5652","
        <div style=""display: flex; justify-content: center; align-items: center;"">
          <div style=""text-align: center; margin-right: 20px;"">
            <p style=""font-size: 24px; font-weight: bold;"">Event 1</p>
            <img src=""images/causal/creative_activities_semantic/creative_activities_semantic_5.png"" style=""width: 300px; height: auto;"">
          </div>
          <div style=""text-align: center; margin-left: 20px;"">
            <p style=""font-size: 24px; font-weight: bold;"">Event 2</p>
            <img src=""images/causal/creative_activities_semantic/creative_activities_semantic_4.png"" style=""width: 300px; height: auto;"">
          </div>
        </div>
        <p style=""text-align: center; margin-top: 20px;"">Did one event cause the other?</p>","2","5","4","true","creative_activities_semantic"
"","","","","","html-button-response","74","905830","0.0-74.0","","7155","
        <div style=""display: flex; justify-content: center; align-items: center;"">
          <div style=""text-align: center; margin-right: 20px;"">
            <p style=""font-size: 24px; font-weight: bold;"">Event 1</p>
            <img src=""images/causal/cat_care_semantic/cat_care_semantic_1.png"" style=""width: 300px; height: auto;"">
          </div>
          <div style=""text-align: center; margin-left: 20px;"">
            <p style=""font-size: 24px; font-weight: bold;"">Event 2</p>
            <img src=""images/causal/cat_care_semantic/cat_care_semantic_2.png"" style=""width: 300px; height: auto;"">
          </div>
        </div>
        <p style=""text-align: center; margin-top: 20px;"">Did one event cause the other?</p>","2","1","2","true","cat_care_semantic"
"","","","","","html-button-response","75","912976","0.0-75.0","","7145","
        <div style=""display: flex; justify-content: center; align-items: center;"">
          <div style=""text-align: center; margin-right: 20px;"">
            <p style=""font-size: 24px; font-weight: bold;"">Event 1</p>
            <img src=""images/causal/exploring_nature_semantic/exploring_nature_semantic_9.png"" style=""width: 300px; height: auto;"">
          </div>
          <div style=""text-align: center; margin-left: 20px;"">
            <p style=""font-size: 24px; font-weight: bold;"">Event 2</p>
            <img src=""images/causal/exploring_nature_semantic/exploring_nature_semantic_8.png"" style=""width: 300px; height: auto;"">
          </div>
        </div>
        <p style=""text-align: center; margin-top: 20px;"">Did one event cause the other?</p>","2","9","8","true","exploring_nature_semantic"
"","","","","","html-button-response","76","926829","0.0-76.0","","13852","
        <div style=""display: flex; justify-content: center; align-items: center;"">
          <div style=""text-align: center; margin-right: 20px;"">
            <p style=""font-size: 24px; font-weight: bold;"">Event 1</p>
            <img src=""images/causal/housework_semantic/housework_semantic_5.png"" style=""width: 300px; height: auto;"">
          </div>
          <div style=""text-align: center; margin-left: 20px;"">
            <p style=""font-size: 24px; font-weight: bold;"">Event 2</p>
            <img src=""images/causal/housework_semantic/housework_semantic_4.png"" style=""width: 300px; height: auto;"">
          </div>
        </div>
        <p style=""text-align: center; margin-top: 20px;"">Did one event cause the other?</p>","0","5","4","true","housework_semantic"
"","","","","","html-button-response","77","933314","0.0-77.0","","6485","
        <div style=""display: flex; justify-content: center; align-items: center;"">
          <div style=""text-align: center; margin-right: 20px;"">
            <p style=""font-size: 24px; font-weight: bold;"">Event 1</p>
            <img src=""images/causal/housework_semantic/housework_semantic_3.png"" style=""width: 300px; height: auto;"">
          </div>
          <div style=""text-align: center; margin-left: 20px;"">
            <p style=""font-size: 24px; font-weight: bold;"">Event 2</p>
            <img src=""images/causal/housework_semantic/housework_semantic_9.png"" style=""width: 300px; height: auto;"">
          </div>
        </div>
        <p style=""text-align: center; margin-top: 20px;"">Did one event cause the other?</p>","2","3","9","true","housework_semantic"
"","","","","","html-button-response","78","938917","0.0-78.0","","5602","
        <div style=""display: flex; justify-content: center; align-items: center;"">
          <div style=""text-align: center; margin-right: 20px;"">
            <p style=""font-size: 24px; font-weight: bold;"">Event 1</p>
            <img src=""images/causal/coin_causal/coin_causal_1.png"" style=""width: 300px; height: auto;"">
          </div>
          <div style=""text-align: center; margin-left: 20px;"">
            <p style=""font-size: 24px; font-weight: bold;"">Event 2</p>
            <img src=""images/causal/coin_causal/coin_causal_6.png"" style=""width: 300px; height: auto;"">
          </div>
        </div>
        <p style=""text-align: center; margin-top: 20px;"">Did one event cause the other?</p>","2","1","6","true","coin_causal"
"","","","","","html-button-response","79","944973","0.0-79.0","","6056","
        <div style=""display: flex; justify-content: center; align-items: center;"">
          <div style=""text-align: center; margin-right: 20px;"">
            <p style=""font-size: 24px; font-weight: bold;"">Event 1</p>
            <img src=""images/causal/dog_causal/dog_causal_4.png"" style=""width: 300px; height: auto;"">
          </div>
          <div style=""text-align: center; margin-left: 20px;"">
            <p style=""font-size: 24px; font-weight: bold;"">Event 2</p>
            <img src=""images/causal/dog_causal/dog_causal_9.png"" style=""width: 300px; height: auto;"">
          </div>
        </div>
        <p style=""text-align: center; margin-top: 20px;"">Did one event cause the other?</p>","2","4","9","true","dog_causal"
"","","","","","html-button-response","80","953939","0.0-80.0","","8966","
        <div style=""display: flex; justify-content: center; align-items: center;"">
          <div style=""text-align: center; margin-right: 20px;"">
            <p style=""font-size: 24px; font-weight: bold;"">Event 1</p>
            <img src=""images/causal/flight_scheme/flight_scheme_ten.png"" style=""width: 300px; height: auto;"">
          </div>
          <div style=""text-align: center; margin-left: 20px;"">
            <p style=""font-size: 24px; font-weight: bold;"">Event 2</p>
            <img src=""images/causal/flight_scheme/flight_scheme_5.png"" style=""width: 300px; height: auto;"">
          </div>
        </div>
        <p style=""text-align: center; margin-top: 20px;"">Did one event cause the other?</p>","2","10","5","true","flight_scheme"
"","","","","","html-button-response","81","963891","0.0-81.0","","9951","
        <div style=""display: flex; justify-content: center; align-items: center;"">
          <div style=""text-align: center; margin-right: 20px;"">
            <p style=""font-size: 24px; font-weight: bold;"">Event 1</p>
            <img src=""images/causal/housework_semantic/housework_semantic_3.png"" style=""width: 300px; height: auto;"">
          </div>
          <div style=""text-align: center; margin-left: 20px;"">
            <p style=""font-size: 24px; font-weight: bold;"">Event 2</p>
            <img src=""images/causal/housework_semantic/housework_semantic_ten.png"" style=""width: 300px; height: auto;"">
          </div>
        </div>
        <p style=""text-align: center; margin-top: 20px;"">Did one event cause the other?</p>","2","3","10","true","housework_semantic"
"","","","","","html-button-response","82","973121","0.0-82.0","","9230","
        <div style=""display: flex; justify-content: center; align-items: center;"">
          <div style=""text-align: center; margin-right: 20px;"">
            <p style=""font-size: 24px; font-weight: bold;"">Event 1</p>
            <img src=""images/causal/exploring_nature_semantic/exploring_nature_semantic_1.png"" style=""width: 300px; height: auto;"">
          </div>
          <div style=""text-align: center; margin-left: 20px;"">
            <p style=""font-size: 24px; font-weight: bold;"">Event 2</p>
            <img src=""images/causal/exploring_nature_semantic/exploring_nature_semantic_ten.png"" style=""width: 300px; height: auto;"">
          </div>
        </div>
        <p style=""text-align: center; margin-top: 20px;"">Did one event cause the other?</p>","0","1","10","true","exploring_nature_semantic"
"","","","","","html-button-response","83","980376","0.0-83.0","","7255","
        <div style=""display: flex; justify-content: center; align-items: center;"">
          <div style=""text-align: center; margin-right: 20px;"">
            <p style=""font-size: 24px; font-weight: bold;"">Event 1</p>
            <img src=""images/causal/dog_causal/dog_causal_2.png"" style=""width: 300px; height: auto;"">
          </div>
          <div style=""text-align: center; margin-left: 20px;"">
            <p style=""font-size: 24px; font-weight: bold;"">Event 2</p>
            <img src=""images/causal/dog_causal/dog_causal_5.png"" style=""width: 300px; height: auto;"">
          </div>
        </div>
        <p style=""text-align: center; margin-top: 20px;"">Did one event cause the other?</p>","2","2","5","true","dog_causal"
"","","","","","html-button-response","84","986187","0.0-84.0","","5810","
        <div style=""display: flex; justify-content: center; align-items: center;"">
          <div style=""text-align: center; margin-right: 20px;"">
            <p style=""font-size: 24px; font-weight: bold;"">Event 1</p>
            <img src=""images/causal/dinner_party_scheme/dinner_party_scheme_6.png"" style=""width: 300px; height: auto;"">
          </div>
          <div style=""text-align: center; margin-left: 20px;"">
            <p style=""font-size: 24px; font-weight: bold;"">Event 2</p>
            <img src=""images/causal/dinner_party_scheme/dinner_party_scheme_5.png"" style=""width: 300px; height: auto;"">
          </div>
        </div>
        <p style=""text-align: center; margin-top: 20px;"">Did one event cause the other?</p>","1","6","5","true","dinner_party_scheme"
"","","","","","html-button-response","85","993609","0.0-85.0","","7422","
        <div style=""display: flex; justify-content: center; align-items: center;"">
          <div style=""text-align: center; margin-right: 20px;"">
            <p style=""font-size: 24px; font-weight: bold;"">Event 1</p>
            <img src=""images/causal/exploring_nature_semantic/exploring_nature_semantic_7.png"" style=""width: 300px; height: auto;"">
          </div>
          <div style=""text-align: center; margin-left: 20px;"">
            <p style=""font-size: 24px; font-weight: bold;"">Event 2</p>
            <img src=""images/causal/exploring_nature_semantic/exploring_nature_semantic_6.png"" style=""width: 300px; height: auto;"">
          </div>
        </div>
        <p style=""text-align: center; margin-top: 20px;"">Did one event cause the other?</p>","2","7","6","true","exploring_nature_semantic"
"","","","","","html-button-response","86","999293","0.0-86.0","","5683","
        <div style=""display: flex; justify-content: center; align-items: center;"">
          <div style=""text-align: center; margin-right: 20px;"">
            <p style=""font-size: 24px; font-weight: bold;"">Event 1</p>
            <img src=""images/causal/housework_semantic/housework_semantic_5.png"" style=""width: 300px; height: auto;"">
          </div>
          <div style=""text-align: center; margin-left: 20px;"">
            <p style=""font-size: 24px; font-weight: bold;"">Event 2</p>
            <img src=""images/causal/housework_semantic/housework_semantic_6.png"" style=""width: 300px; height: auto;"">
          </div>
        </div>
        <p style=""text-align: center; margin-top: 20px;"">Did one event cause the other?</p>","2","5","6","true","housework_semantic"
"","","","","","html-button-response","87","1004933","0.0-87.0","","5640","
        <div style=""display: flex; justify-content: center; align-items: center;"">
          <div style=""text-align: center; margin-right: 20px;"">
            <p style=""font-size: 24px; font-weight: bold;"">Event 1</p>
            <img src=""images/causal/housework_semantic/housework_semantic_1.png"" style=""width: 300px; height: auto;"">
          </div>
          <div style=""text-align: center; margin-left: 20px;"">
            <p style=""font-size: 24px; font-weight: bold;"">Event 2</p>
            <img src=""images/causal/housework_semantic/housework_semantic_9.png"" style=""width: 300px; height: auto;"">
          </div>
        </div>
        <p style=""text-align: center; margin-top: 20px;"">Did one event cause the other?</p>","2","1","9","true","housework_semantic"
"","","","","","html-button-response","88","1012071","0.0-88.0","","7138","
        <div style=""display: flex; justify-content: center; align-items: center;"">
          <div style=""text-align: center; margin-right: 20px;"">
            <p style=""font-size: 24px; font-weight: bold;"">Event 1</p>
            <img src=""images/causal/coin_causal/coin_causal_3.png"" style=""width: 300px; height: auto;"">
          </div>
          <div style=""text-align: center; margin-left: 20px;"">
            <p style=""font-size: 24px; font-weight: bold;"">Event 2</p>
            <img src=""images/causal/coin_causal/coin_causal_9.png"" style=""width: 300px; height: auto;"">
          </div>
        </div>
        <p style=""text-align: center; margin-top: 20px;"">Did one event cause the other?</p>","2","3","9","true","coin_causal"
"","","","","","html-button-response","89","1017611","0.0-89.0","","5540","
        <div style=""display: flex; justify-content: center; align-items: center;"">
          <div style=""text-align: center; margin-right: 20px;"">
            <p style=""font-size: 24px; font-weight: bold;"">Event 1</p>
            <img src=""images/causal/flight_scheme/flight_scheme_1.png"" style=""width: 300px; height: auto;"">
          </div>
          <div style=""text-align: center; margin-left: 20px;"">
            <p style=""font-size: 24px; font-weight: bold;"">Event 2</p>
            <img src=""images/causal/flight_scheme/flight_scheme_7.png"" style=""width: 300px; height: auto;"">
          </div>
        </div>
        <p style=""text-align: center; margin-top: 20px;"">Did one event cause the other?</p>","0","1","7","true","flight_scheme"
"","","","","","html-button-response","90","1024868","0.0-90.0","","7256","
        <div style=""display: flex; justify-content: center; align-items: center;"">
          <div style=""text-align: center; margin-right: 20px;"">
            <p style=""font-size: 24px; font-weight: bold;"">Event 1</p>
            <img src=""images/causal/exploring_nature_semantic/exploring_nature_semantic_9.png"" style=""width: 300px; height: auto;"">
          </div>
          <div style=""text-align: center; margin-left: 20px;"">
            <p style=""font-size: 24px; font-weight: bold;"">Event 2</p>
            <img src=""images/causal/exploring_nature_semantic/exploring_nature_semantic_6.png"" style=""width: 300px; height: auto;"">
          </div>
        </div>
        <p style=""text-align: center; margin-top: 20px;"">Did one event cause the other?</p>","2","9","6","true","exploring_nature_semantic"
"","","","","","html-button-response","91","1030415","0.0-91.0","","5547","
        <div style=""display: flex; justify-content: center; align-items: center;"">
          <div style=""text-align: center; margin-right: 20px;"">
            <p style=""font-size: 24px; font-weight: bold;"">Event 1</p>
            <img src=""images/causal/exploring_nature_semantic/exploring_nature_semantic_7.png"" style=""width: 300px; height: auto;"">
          </div>
          <div style=""text-align: center; margin-left: 20px;"">
            <p style=""font-size: 24px; font-weight: bold;"">Event 2</p>
            <img src=""images/causal/exploring_nature_semantic/exploring_nature_semantic_4.png"" style=""width: 300px; height: auto;"">
          </div>
        </div>
        <p style=""text-align: center; margin-top: 20px;"">Did one event cause the other?</p>","2","7","4","true","exploring_nature_semantic"
"","","","","","html-button-response","92","1035884","0.0-92.0","","5468","
        <div style=""display: flex; justify-content: center; align-items: center;"">
          <div style=""text-align: center; margin-right: 20px;"">
            <p style=""font-size: 24px; font-weight: bold;"">Event 1</p>
            <img src=""images/causal/dog_causal/dog_causal_3.png"" style=""width: 300px; height: auto;"">
          </div>
          <div style=""text-align: center; margin-left: 20px;"">
            <p style=""font-size: 24px; font-weight: bold;"">Event 2</p>
            <img src=""images/causal/dog_causal/dog_causal_ten.png"" style=""width: 300px; height: auto;"">
          </div>
        </div>
        <p style=""text-align: center; margin-top: 20px;"">Did one event cause the other?</p>","2","3","10","true","dog_causal"
"","","","","","html-button-response","93","1041391","0.0-93.0","","5506","
        <div style=""display: flex; justify-content: center; align-items: center;"">
          <div style=""text-align: center; margin-right: 20px;"">
            <p style=""font-size: 24px; font-weight: bold;"">Event 1</p>
            <img src=""images/causal/exploring_nature_semantic/exploring_nature_semantic_2.png"" style=""width: 300px; height: auto;"">
          </div>
          <div style=""text-align: center; margin-left: 20px;"">
            <p style=""font-size: 24px; font-weight: bold;"">Event 2</p>
            <img src=""images/causal/exploring_nature_semantic/exploring_nature_semantic_6.png"" style=""width: 300px; height: auto;"">
          </div>
        </div>
        <p style=""text-align: center; margin-top: 20px;"">Did one event cause the other?</p>","2","2","6","true","exploring_nature_semantic"
"","","","","","html-button-response","94","1047630","0.0-94.0","","6238","
        <div style=""display: flex; justify-content: center; align-items: center;"">
          <div style=""text-align: center; margin-right: 20px;"">
            <p style=""font-size: 24px; font-weight: bold;"">Event 1</p>
            <img src=""images/causal/coin_causal/coin_causal_4.png"" style=""width: 300px; height: auto;"">
          </div>
          <div style=""text-align: center; margin-left: 20px;"">
            <p style=""font-size: 24px; font-weight: bold;"">Event 2</p>
            <img src=""images/causal/coin_causal/coin_causal_2.png"" style=""width: 300px; height: auto;"">
          </div>
        </div>
        <p style=""text-align: center; margin-top: 20px;"">Did one event cause the other?</p>","2","4","2","true","coin_causal"
"","","","","","html-button-response","95","1053895","0.0-95.0","","6264","
        <div style=""display: flex; justify-content: center; align-items: center;"">
          <div style=""text-align: center; margin-right: 20px;"">
            <p style=""font-size: 24px; font-weight: bold;"">Event 1</p>
            <img src=""images/causal/dog_causal/dog_causal_8.png"" style=""width: 300px; height: auto;"">
          </div>
          <div style=""text-align: center; margin-left: 20px;"">
            <p style=""font-size: 24px; font-weight: bold;"">Event 2</p>
            <img src=""images/causal/dog_causal/dog_causal_7.png"" style=""width: 300px; height: auto;"">
          </div>
        </div>
        <p style=""text-align: center; margin-top: 20px;"">Did one event cause the other?</p>","1","8","7","true","dog_causal"
"","","","","","html-button-response","96","1059333","0.0-96.0","","5437","
        <div style=""display: flex; justify-content: center; align-items: center;"">
          <div style=""text-align: center; margin-right: 20px;"">
            <p style=""font-size: 24px; font-weight: bold;"">Event 1</p>
            <img src=""images/causal/exploring_nature_semantic/exploring_nature_semantic_ten.png"" style=""width: 300px; height: auto;"">
          </div>
          <div style=""text-align: center; margin-left: 20px;"">
            <p style=""font-size: 24px; font-weight: bold;"">Event 2</p>
            <img src=""images/causal/exploring_nature_semantic/exploring_nature_semantic_6.png"" style=""width: 300px; height: auto;"">
          </div>
        </div>
        <p style=""text-align: center; margin-top: 20px;"">Did one event cause the other?</p>","2","10","6","true","exploring_nature_semantic"
"","","","","","html-button-response","97","1065320","0.0-97.0","","5987","
        <div style=""display: flex; justify-content: center; align-items: center;"">
          <div style=""text-align: center; margin-right: 20px;"">
            <p style=""font-size: 24px; font-weight: bold;"">Event 1</p>
            <img src=""images/causal/coin_causal/coin_causal_2.png"" style=""width: 300px; height: auto;"">
          </div>
          <div style=""text-align: center; margin-left: 20px;"">
            <p style=""font-size: 24px; font-weight: bold;"">Event 2</p>
            <img src=""images/causal/coin_causal/coin_causal_9.png"" style=""width: 300px; height: auto;"">
          </div>
        </div>
        <p style=""text-align: center; margin-top: 20px;"">Did one event cause the other?</p>","2","2","9","true","coin_causal"
"","","","","","html-button-response","98","1071756","0.0-98.0","","6436","
        <div style=""display: flex; justify-content: center; align-items: center;"">
          <div style=""text-align: center; margin-right: 20px;"">
            <p style=""font-size: 24px; font-weight: bold;"">Event 1</p>
            <img src=""images/causal/dog_causal/dog_causal_4.png"" style=""width: 300px; height: auto;"">
          </div>
          <div style=""text-align: center; margin-left: 20px;"">
            <p style=""font-size: 24px; font-weight: bold;"">Event 2</p>
            <img src=""images/causal/dog_causal/dog_causal_2.png"" style=""width: 300px; height: auto;"">
          </div>
        </div>
        <p style=""text-align: center; margin-top: 20px;"">Did one event cause the other?</p>","1","4","2","true","dog_causal"
"","","","","","html-button-response","99","1077151","0.0-99.0","","5395","
        <div style=""display: flex; justify-content: center; align-items: center;"">
          <div style=""text-align: center; margin-right: 20px;"">
            <p style=""font-size: 24px; font-weight: bold;"">Event 1</p>
            <img src=""images/causal/exploring_nature_semantic/exploring_nature_semantic_3.png"" style=""width: 300px; height: auto;"">
          </div>
          <div style=""text-align: center; margin-left: 20px;"">
            <p style=""font-size: 24px; font-weight: bold;"">Event 2</p>
            <img src=""images/causal/exploring_nature_semantic/exploring_nature_semantic_4.png"" style=""width: 300px; height: auto;"">
          </div>
        </div>
        <p style=""text-align: center; margin-top: 20px;"">Did one event cause the other?</p>","2","3","4","true","exploring_nature_semantic"
"","","","","","html-button-response","100","1084989","0.0-100.0","","7837","
        <div style=""display: flex; justify-content: center; align-items: center;"">
          <div style=""text-align: center; margin-right: 20px;"">
            <p style=""font-size: 24px; font-weight: bold;"">Event 1</p>
            <img src=""images/causal/cat_care_semantic/cat_care_semantic_5.png"" style=""width: 300px; height: auto;"">
          </div>
          <div style=""text-align: center; margin-left: 20px;"">
            <p style=""font-size: 24px; font-weight: bold;"">Event 2</p>
            <img src=""images/causal/cat_care_semantic/cat_care_semantic_8.png"" style=""width: 300px; height: auto;"">
          </div>
        </div>
        <p style=""text-align: center; margin-top: 20px;"">Did one event cause the other?</p>","2","5","8","true","cat_care_semantic"
"","","","","","html-button-response","101","1091252","0.0-101.0","","6263","
        <div style=""display: flex; justify-content: center; align-items: center;"">
          <div style=""text-align: center; margin-right: 20px;"">
            <p style=""font-size: 24px; font-weight: bold;"">Event 1</p>
            <img src=""images/causal/exploring_nature_semantic/exploring_nature_semantic_2.png"" style=""width: 300px; height: auto;"">
          </div>
          <div style=""text-align: center; margin-left: 20px;"">
            <p style=""font-size: 24px; font-weight: bold;"">Event 2</p>
            <img src=""images/causal/exploring_nature_semantic/exploring_nature_semantic_3.png"" style=""width: 300px; height: auto;"">
          </div>
        </div>
        <p style=""text-align: center; margin-top: 20px;"">Did one event cause the other?</p>","2","2","3","true","exploring_nature_semantic"
"","","","","","html-button-response","102","1096842","0.0-102.0","","5589","
        <div style=""display: flex; justify-content: center; align-items: center;"">
          <div style=""text-align: center; margin-right: 20px;"">
            <p style=""font-size: 24px; font-weight: bold;"">Event 1</p>
            <img src=""images/causal/dog_causal/dog_causal_1.png"" style=""width: 300px; height: auto;"">
          </div>
          <div style=""text-align: center; margin-left: 20px;"">
            <p style=""font-size: 24px; font-weight: bold;"">Event 2</p>
            <img src=""images/causal/dog_causal/dog_causal_ten.png"" style=""width: 300px; height: auto;"">
          </div>
        </div>
        <p style=""text-align: center; margin-top: 20px;"">Did one event cause the other?</p>","2","1","10","true","dog_causal"
"","","","","","html-button-response","103","1103637","0.0-103.0","","6794","
        <div style=""display: flex; justify-content: center; align-items: center;"">
          <div style=""text-align: center; margin-right: 20px;"">
            <p style=""font-size: 24px; font-weight: bold;"">Event 1</p>
            <img src=""images/causal/housework_semantic/housework_semantic_ten.png"" style=""width: 300px; height: auto;"">
          </div>
          <div style=""text-align: center; margin-left: 20px;"">
            <p style=""font-size: 24px; font-weight: bold;"">Event 2</p>
            <img src=""images/causal/housework_semantic/housework_semantic_5.png"" style=""width: 300px; height: auto;"">
          </div>
        </div>
        <p style=""text-align: center; margin-top: 20px;"">Did one event cause the other?</p>","2","10","5","true","housework_semantic"
"","","","","","html-button-response","104","1112972","0.0-104.0","","9335","
        <div style=""display: flex; justify-content: center; align-items: center;"">
          <div style=""text-align: center; margin-right: 20px;"">
            <p style=""font-size: 24px; font-weight: bold;"">Event 1</p>
            <img src=""images/causal/flight_scheme/flight_scheme_8.png"" style=""width: 300px; height: auto;"">
          </div>
          <div style=""text-align: center; margin-left: 20px;"">
            <p style=""font-size: 24px; font-weight: bold;"">Event 2</p>
            <img src=""images/causal/flight_scheme/flight_scheme_4.png"" style=""width: 300px; height: auto;"">
          </div>
        </div>
        <p style=""text-align: center; margin-top: 20px;"">Did one event cause the other?</p>","2","8","4","true","flight_scheme"
"","","","","","html-button-response","105","1118582","0.0-105.0","","5610","
        <div style=""display: flex; justify-content: center; align-items: center;"">
          <div style=""text-align: center; margin-right: 20px;"">
            <p style=""font-size: 24px; font-weight: bold;"">Event 1</p>
            <img src=""images/causal/cat_care_semantic/cat_care_semantic_4.png"" style=""width: 300px; height: auto;"">
          </div>
          <div style=""text-align: center; margin-left: 20px;"">
            <p style=""font-size: 24px; font-weight: bold;"">Event 2</p>
            <img src=""images/causal/cat_care_semantic/cat_care_semantic_6.png"" style=""width: 300px; height: auto;"">
          </div>
        </div>
        <p style=""text-align: center; margin-top: 20px;"">Did one event cause the other?</p>","2","4","6","true","cat_care_semantic"
"","","","","","html-button-response","106","1125303","0.0-106.0","","6721","
        <div style=""display: flex; justify-content: center; align-items: center;"">
          <div style=""text-align: center; margin-right: 20px;"">
            <p style=""font-size: 24px; font-weight: bold;"">Event 1</p>
            <img src=""images/causal/cat_care_semantic/cat_care_semantic_2.png"" style=""width: 300px; height: auto;"">
          </div>
          <div style=""text-align: center; margin-left: 20px;"">
            <p style=""font-size: 24px; font-weight: bold;"">Event 2</p>
            <img src=""images/causal/cat_care_semantic/cat_care_semantic_8.png"" style=""width: 300px; height: auto;"">
          </div>
        </div>
        <p style=""text-align: center; margin-top: 20px;"">Did one event cause the other?</p>","2","2","8","true","cat_care_semantic"
"","","","","","html-button-response","107","1131676","0.0-107.0","","6372","
        <div style=""display: flex; justify-content: center; align-items: center;"">
          <div style=""text-align: center; margin-right: 20px;"">
            <p style=""font-size: 24px; font-weight: bold;"">Event 1</p>
            <img src=""images/causal/dog_causal/dog_causal_3.png"" style=""width: 300px; height: auto;"">
          </div>
          <div style=""text-align: center; margin-left: 20px;"">
            <p style=""font-size: 24px; font-weight: bold;"">Event 2</p>
            <img src=""images/causal/dog_causal/dog_causal_2.png"" style=""width: 300px; height: auto;"">
          </div>
        </div>
        <p style=""text-align: center; margin-top: 20px;"">Did one event cause the other?</p>","1","3","2","true","dog_causal"
"","","","","","html-button-response","108","1138341","0.0-108.0","","6665","
        <div style=""display: flex; justify-content: center; align-items: center;"">
          <div style=""text-align: center; margin-right: 20px;"">
            <p style=""font-size: 24px; font-weight: bold;"">Event 1</p>
            <img src=""images/causal/housework_semantic/housework_semantic_7.png"" style=""width: 300px; height: auto;"">
          </div>
          <div style=""text-align: center; margin-left: 20px;"">
            <p style=""font-size: 24px; font-weight: bold;"">Event 2</p>
            <img src=""images/causal/housework_semantic/housework_semantic_4.png"" style=""width: 300px; height: auto;"">
          </div>
        </div>
        <p style=""text-align: center; margin-top: 20px;"">Did one event cause the other?</p>","2","7","4","true","housework_semantic"
"","","","","","html-button-response","109","1143812","0.0-109.0","","5470","
        <div style=""display: flex; justify-content: center; align-items: center;"">
          <div style=""text-align: center; margin-right: 20px;"">
            <p style=""font-size: 24px; font-weight: bold;"">Event 1</p>
            <img src=""images/causal/flight_scheme/flight_scheme_4.png"" style=""width: 300px; height: auto;"">
          </div>
          <div style=""text-align: center; margin-left: 20px;"">
            <p style=""font-size: 24px; font-weight: bold;"">Event 2</p>
            <img src=""images/causal/flight_scheme/flight_scheme_2.png"" style=""width: 300px; height: auto;"">
          </div>
        </div>
        <p style=""text-align: center; margin-top: 20px;"">Did one event cause the other?</p>","1","4","2","true","flight_scheme"
"","","","","","html-button-response","110","1149448","0.0-110.0","","5635","
        <div style=""display: flex; justify-content: center; align-items: center;"">
          <div style=""text-align: center; margin-right: 20px;"">
            <p style=""font-size: 24px; font-weight: bold;"">Event 1</p>
            <img src=""images/causal/creative_activities_semantic/creative_activities_semantic_8.png"" style=""width: 300px; height: auto;"">
          </div>
          <div style=""text-align: center; margin-left: 20px;"">
            <p style=""font-size: 24px; font-weight: bold;"">Event 2</p>
            <img src=""images/causal/creative_activities_semantic/creative_activities_semantic_2.png"" style=""width: 300px; height: auto;"">
          </div>
        </div>
        <p style=""text-align: center; margin-top: 20px;"">Did one event cause the other?</p>","2","8","2","true","creative_activities_semantic"
"","","","","","html-button-response","111","1155339","0.0-111.0","","5890","
        <div style=""display: flex; justify-content: center; align-items: center;"">
          <div style=""text-align: center; margin-right: 20px;"">
            <p style=""font-size: 24px; font-weight: bold;"">Event 1</p>
            <img src=""images/causal/coin_causal/coin_causal_2.png"" style=""width: 300px; height: auto;"">
          </div>
          <div style=""text-align: center; margin-left: 20px;"">
            <p style=""font-size: 24px; font-weight: bold;"">Event 2</p>
            <img src=""images/causal/coin_causal/coin_causal_7.png"" style=""width: 300px; height: auto;"">
          </div>
        </div>
        <p style=""text-align: center; margin-top: 20px;"">Did one event cause the other?</p>","2","2","7","true","coin_causal"
"","","","","","html-button-response","112","1163865","0.0-112.0","","8526","
        <div style=""display: flex; justify-content: center; align-items: center;"">
          <div style=""text-align: center; margin-right: 20px;"">
            <p style=""font-size: 24px; font-weight: bold;"">Event 1</p>
            <img src=""images/causal/cat_care_semantic/cat_care_semantic_1.png"" style=""width: 300px; height: auto;"">
          </div>
          <div style=""text-align: center; margin-left: 20px;"">
            <p style=""font-size: 24px; font-weight: bold;"">Event 2</p>
            <img src=""images/causal/cat_care_semantic/cat_care_semantic_5.png"" style=""width: 300px; height: auto;"">
          </div>
        </div>
        <p style=""text-align: center; margin-top: 20px;"">Did one event cause the other?</p>","2","1","5","true","cat_care_semantic"
"","","","","","html-button-response","113","1169886","0.0-113.0","","6019","
        <div style=""display: flex; justify-content: center; align-items: center;"">
          <div style=""text-align: center; margin-right: 20px;"">
            <p style=""font-size: 24px; font-weight: bold;"">Event 1</p>
            <img src=""images/causal/creative_activities_semantic/creative_activities_semantic_1.png"" style=""width: 300px; height: auto;"">
          </div>
          <div style=""text-align: center; margin-left: 20px;"">
            <p style=""font-size: 24px; font-weight: bold;"">Event 2</p>
            <img src=""images/causal/creative_activities_semantic/creative_activities_semantic_6.png"" style=""width: 300px; height: auto;"">
          </div>
        </div>
        <p style=""text-align: center; margin-top: 20px;"">Did one event cause the other?</p>","2","1","6","true","creative_activities_semantic"
"","","","","","html-button-response","114","1179482","0.0-114.0","","9596","
        <div style=""display: flex; justify-content: center; align-items: center;"">
          <div style=""text-align: center; margin-right: 20px;"">
            <p style=""font-size: 24px; font-weight: bold;"">Event 1</p>
            <img src=""images/causal/cat_care_semantic/cat_care_semantic_3.png"" style=""width: 300px; height: auto;"">
          </div>
          <div style=""text-align: center; margin-left: 20px;"">
            <p style=""font-size: 24px; font-weight: bold;"">Event 2</p>
            <img src=""images/causal/cat_care_semantic/cat_care_semantic_2.png"" style=""width: 300px; height: auto;"">
          </div>
        </div>
        <p style=""text-align: center; margin-top: 20px;"">Did one event cause the other?</p>","1","3","2","true","cat_care_semantic"
"","","","","","html-button-response","115","1184896","0.0-115.0","","5413","
        <div style=""display: flex; justify-content: center; align-items: center;"">
          <div style=""text-align: center; margin-right: 20px;"">
            <p style=""font-size: 24px; font-weight: bold;"">Event 1</p>
            <img src=""images/causal/creative_activities_semantic/creative_activities_semantic_5.png"" style=""width: 300px; height: auto;"">
          </div>
          <div style=""text-align: center; margin-left: 20px;"">
            <p style=""font-size: 24px; font-weight: bold;"">Event 2</p>
            <img src=""images/causal/creative_activities_semantic/creative_activities_semantic_3.png"" style=""width: 300px; height: auto;"">
          </div>
        </div>
        <p style=""text-align: center; margin-top: 20px;"">Did one event cause the other?</p>","2","5","3","true","creative_activities_semantic"
"","","","","","html-button-response","116","1191845","0.0-116.0","","6948","
        <div style=""display: flex; justify-content: center; align-items: center;"">
          <div style=""text-align: center; margin-right: 20px;"">
            <p style=""font-size: 24px; font-weight: bold;"">Event 1</p>
            <img src=""images/causal/cat_care_semantic/cat_care_semantic_6.png"" style=""width: 300px; height: auto;"">
          </div>
          <div style=""text-align: center; margin-left: 20px;"">
            <p style=""font-size: 24px; font-weight: bold;"">Event 2</p>
            <img src=""images/causal/cat_care_semantic/cat_care_semantic_7.png"" style=""width: 300px; height: auto;"">
          </div>
        </div>
        <p style=""text-align: center; margin-top: 20px;"">Did one event cause the other?</p>","2","6","7","true","cat_care_semantic"
"","","","","","html-button-response","117","1200060","0.0-117.0","","8215","
        <div style=""display: flex; justify-content: center; align-items: center;"">
          <div style=""text-align: center; margin-right: 20px;"">
            <p style=""font-size: 24px; font-weight: bold;"">Event 1</p>
            <img src=""images/causal/housework_semantic/housework_semantic_2.png"" style=""width: 300px; height: auto;"">
          </div>
          <div style=""text-align: center; margin-left: 20px;"">
            <p style=""font-size: 24px; font-weight: bold;"">Event 2</p>
            <img src=""images/causal/housework_semantic/housework_semantic_5.png"" style=""width: 300px; height: auto;"">
          </div>
        </div>
        <p style=""text-align: center; margin-top: 20px;"">Did one event cause the other?</p>","2","2","5","true","housework_semantic"
"","","","","","html-button-response","118","1206863","0.0-118.0","","6802","
        <div style=""display: flex; justify-content: center; align-items: center;"">
          <div style=""text-align: center; margin-right: 20px;"">
