"success","timeout","failed_images","failed_audio","failed_video","trial_type","trial_index","time_elapsed","internal_node_id","view_history","rt","stimulus","response","firstImageNumber","secondImageNumber","response_made","stimulus_type"
"true","false","[]","[]","[]","preload","0","2993","0.0-0.0","","","","","","","",""
"","","","","","instructions","1","16527","0.0-1.0","[{""page_index"":0,""viewing_time"":13533}]","13534","","","","","",""
"","","","","","html-button-response","2","24315","0.0-2.0","","7786","
        <div style=""display: flex; justify-content: center; align-items: center;"">
          <div style=""text-align: center; margin-right: 20px;"">
            <p style=""font-size: 24px; font-weight: bold;"">Event 1<p>
            <img src=""images/instructions/1.png"" style=""width: 300px; height: auto;"">
          </div>
          <div style=""text-align: center; margin-left: 20px;"">
            <p style=""font-size: 24px; font-weight: bold;"">Event 2</p>
            <img src=""images/instructions/2.png"" style=""width: 300px; height: auto;"">
          </div>
        </div>
        <p style=""text-align: center; margin-top: 20px;"">Did one event cause the other?</p>","0","","","",""
"","","","","","html-button-response","3","26516","0.0-3.0","","2201","
        <div style=""display: flex; justify-content: center; align-items: center;"">
          <div style=""text-align: center; margin-right: 20px;"">
            <p style=""font-size: 24px; font-weight: bold;"">Event 1<p>
            <img src=""images/instructions/1.png"" style=""width: 300px; height: auto;"">
          </div>
          <div style=""text-align: center; margin-left: 20px;"">
            <p style=""font-size: 24px; font-weight: bold;"">Event 2</p>
            <img src=""images/instructions/2.png"" style=""width: 300px; height: auto;"">
          </div>
        </div>
        <h2>Correct Answer</h2>
        <p>The correct answer is: <strong>event 1 causes event 2</strong>.</p>
        <p>Click ""Next"" to proceed to the next example.</p>","0","","","",""
"","","","","","html-button-response","4","35628","0.0-4.0","","9110","
   <div style=""display: flex; justify-content: center; align-items: center;"">
          <div style=""text-align: center; margin-right: 20px;"">
            <p style=""font-size: 24px; font-weight: bold;"">Event 1<p>
            <img src=""images/instructions/2.png"" style=""width: 300px; height: auto;"">
          </div>
          <div style=""text-align: center; margin-left: 20px;"">
            <p style=""font-size: 24px; font-weight: bold;"">Event 2</p>
            <img src=""images/instructions/1.png"" style=""width: 300px; height: auto;"">
          </div>
        </div>
        <p style=""text-align: center; margin-top: 20px;"">Did one event cause the other?</p>","1","","","",""
"","","","","","html-button-response","5","36828","0.0-5.0","","1200","
        <div style=""display: flex; justify-content: center; align-items: center;"">
          <div style=""text-align: center; margin-right: 20px;"">
            <p style=""font-size: 24px; font-weight: bold;"">Event 1<p>
            <img src=""images/instructions/2.png"" style=""width: 300px; height: auto;"">
          </div>
          <div style=""text-align: center; margin-left: 20px;"">
            <p style=""font-size: 24px; font-weight: bold;"">Event 2</p>
            <img src=""images/instructions/1.png"" style=""width: 300px; height: auto;"">
          </div>
        </div>
        <h2>Correct Answer</h2>
        <p>The correct answer is: <strong>event 2 causes event 1</strong>.</p>
        <p>Click ""Next"" to proceed to the next example.</p>","0","","","",""
"","","","","","html-button-response","6","42402","0.0-6.0","","5573","
        <div style=""display: flex; justify-content: center; align-items: center;"">
          <div style=""text-align: center; margin-right: 20px;"">
            <p style=""font-size: 24px; font-weight: bold;"">Event 1<p>
            <img src=""images/instructions/5.png"" style=""width: 300px; height: auto;"">
          </div>
          <div style=""text-align: center; margin-left: 20px;"">
            <p style=""font-size: 24px; font-weight: bold;"">Event 2</p>
            <img src=""images/instructions/6.png"" style=""width: 300px; height: auto;"">
          </div>
        </div>
        <p style=""text-align: center; margin-top: 20px;"">Did one event cause the other?</p>","2","","","",""
"","","","","","html-button-response","7","43992","0.0-7.0","","1589","
        <div style=""display: flex; justify-content: center; align-items: center;"">
          <div style=""text-align: center; margin-right: 20px;"">
            <p style=""font-size: 24px; font-weight: bold;"">Event 1<p>
            <img src=""images/instructions/5.png"" style=""width: 300px; height: auto;"">
          </div>
          <div style=""text-align: center; margin-left: 20px;"">
            <p style=""font-size: 24px; font-weight: bold;"">Event 2</p>
            <img src=""images/instructions/6.png"" style=""width: 300px; height: auto;"">
          </div>
        </div>
        <h2>Correct Answer</h2>
        <p>The correct answer is: <strong>events are unrelated</strong>.</p>
        <p>Click ""Next"" to proceed to the experiment.</p>","0","","","",""
"","","","","","html-button-response","8","46430","0.0-8.0","","2437","
        <h2>Get Ready!</h2>
        <p>You have completed the examples. The experiment is about to begin.</p>
        <p>Click ""Start"" to begin the experiment.</p>","0","","","",""
"","","","","","html-button-response","9","53534","0.0-9.0","","7102","
        <div style=""display: flex; justify-content: center; align-items: center;"">
          <div style=""text-align: center; margin-right: 20px;"">
            <p style=""font-size: 24px; font-weight: bold;"">Event 1</p>
            <img src=""images/causal/interview_scheme/interview_scheme_2.png"" style=""width: 300px; height: auto;"">
          </div>
          <div style=""text-align: center; margin-left: 20px;"">
            <p style=""font-size: 24px; font-weight: bold;"">Event 2</p>
            <img src=""images/causal/interview_scheme/interview_scheme_7.png"" style=""width: 300px; height: auto;"">
          </div>
        </div>
        <p style=""text-align: center; margin-top: 20px;"">Did one event cause the other?</p>","0","2","7","true","interview_scheme"
"","","","","","html-button-response","10","73498","0.0-10.0","","19963","
        <div style=""display: flex; justify-content: center; align-items: center;"">
          <div style=""text-align: center; margin-right: 20px;"">
            <p style=""font-size: 24px; font-weight: bold;"">Event 1</p>
            <img src=""images/causal/kitchen_operations_semantic/kitchen_operations_semantic_9.png"" style=""width: 300px; height: auto;"">
          </div>
          <div style=""text-align: center; margin-left: 20px;"">
            <p style=""font-size: 24px; font-weight: bold;"">Event 2</p>
            <img src=""images/causal/kitchen_operations_semantic/kitchen_operations_semantic_3.png"" style=""width: 300px; height: auto;"">
          </div>
        </div>
        <p style=""text-align: center; margin-top: 20px;"">Did one event cause the other?</p>","0","9","3","true","kitchen_operations_semantic"
"","","","","","html-button-response","11","84644","0.0-11.0","","11145","
        <div style=""display: flex; justify-content: center; align-items: center;"">
          <div style=""text-align: center; margin-right: 20px;"">
            <p style=""font-size: 24px; font-weight: bold;"">Event 1</p>
            <img src=""images/causal/market_semantic/market_semantic_7.png"" style=""width: 300px; height: auto;"">
          </div>
          <div style=""text-align: center; margin-left: 20px;"">
            <p style=""font-size: 24px; font-weight: bold;"">Event 2</p>
            <img src=""images/causal/market_semantic/market_semantic_ten.png"" style=""width: 300px; height: auto;"">
          </div>
        </div>
        <p style=""text-align: center; margin-top: 20px;"">Did one event cause the other?</p>","0","7","10","true","market_semantic"
"","","","","","html-button-response","12","93398","0.0-12.0","","8753","
        <div style=""display: flex; justify-content: center; align-items: center;"">
          <div style=""text-align: center; margin-right: 20px;"">
            <p style=""font-size: 24px; font-weight: bold;"">Event 1</p>
            <img src=""images/causal/market_semantic/market_semantic_7.png"" style=""width: 300px; height: auto;"">
          </div>
          <div style=""text-align: center; margin-left: 20px;"">
            <p style=""font-size: 24px; font-weight: bold;"">Event 2</p>
            <img src=""images/causal/market_semantic/market_semantic_4.png"" style=""width: 300px; height: auto;"">
          </div>
        </div>
        <p style=""text-align: center; margin-top: 20px;"">Did one event cause the other?</p>","1","7","4","true","market_semantic"
"","","","","","html-button-response","13","103758","0.0-13.0","","10360","
        <div style=""display: flex; justify-content: center; align-items: center;"">
          <div style=""text-align: center; margin-right: 20px;"">
            <p style=""font-size: 24px; font-weight: bold;"">Event 1</p>
            <img src=""images/causal/maintaining_a_car_semantic/maintaining_a_car_semantic_2.png"" style=""width: 300px; height: auto;"">
          </div>
          <div style=""text-align: center; margin-left: 20px;"">
            <p style=""font-size: 24px; font-weight: bold;"">Event 2</p>
            <img src=""images/causal/maintaining_a_car_semantic/maintaining_a_car_semantic_3.png"" style=""width: 300px; height: auto;"">
          </div>
        </div>
        <p style=""text-align: center; margin-top: 20px;"">Did one event cause the other?</p>","0","2","3","true","maintaining_a_car_semantic"
"","","","","","html-button-response","14","113638","0.0-14.0","","9879","
        <div style=""display: flex; justify-content: center; align-items: center;"">
          <div style=""text-align: center; margin-right: 20px;"">
            <p style=""font-size: 24px; font-weight: bold;"">Event 1</p>
            <img src=""images/causal/physical_activity_semantic/physical_activity_semantic_4.png"" style=""width: 300px; height: auto;"">
          </div>
          <div style=""text-align: center; margin-left: 20px;"">
            <p style=""font-size: 24px; font-weight: bold;"">Event 2</p>
            <img src=""images/causal/physical_activity_semantic/physical_activity_semantic_2.png"" style=""width: 300px; height: auto;"">
          </div>
        </div>
        <p style=""text-align: center; margin-top: 20px;"">Did one event cause the other?</p>","2","4","2","true","physical_activity_semantic"
"","","","","","html-button-response","15","120932","0.0-15.0","","7293","
        <div style=""display: flex; justify-content: center; align-items: center;"">
          <div style=""text-align: center; margin-right: 20px;"">
            <p style=""font-size: 24px; font-weight: bold;"">Event 1</p>
            <img src=""images/causal/market_semantic/market_semantic_4.png"" style=""width: 300px; height: auto;"">
          </div>
          <div style=""text-align: center; margin-left: 20px;"">
            <p style=""font-size: 24px; font-weight: bold;"">Event 2</p>
            <img src=""images/causal/market_semantic/market_semantic_9.png"" style=""width: 300px; height: auto;"">
          </div>
        </div>
        <p style=""text-align: center; margin-top: 20px;"">Did one event cause the other?</p>","0","4","9","true","market_semantic"
"","","","","","html-button-response","16","127332","0.0-16.0","","6399","
        <div style=""display: flex; justify-content: center; align-items: center;"">
          <div style=""text-align: center; margin-right: 20px;"">
            <p style=""font-size: 24px; font-weight: bold;"">Event 1</p>
            <img src=""images/causal/maintaining_a_car_semantic/maintaining_a_car_semantic_6.png"" style=""width: 300px; height: auto;"">
          </div>
          <div style=""text-align: center; margin-left: 20px;"">
            <p style=""font-size: 24px; font-weight: bold;"">Event 2</p>
            <img src=""images/causal/maintaining_a_car_semantic/maintaining_a_car_semantic_3.png"" style=""width: 300px; height: auto;"">
          </div>
        </div>
        <p style=""text-align: center; margin-top: 20px;"">Did one event cause the other?</p>","1","6","3","true","maintaining_a_car_semantic"
"","","","","","html-button-response","17","132880","0.0-17.0","","5547","
        <div style=""display: flex; justify-content: center; align-items: center;"">
          <div style=""text-align: center; margin-right: 20px;"">
            <p style=""font-size: 24px; font-weight: bold;"">Event 1</p>
            <img src=""images/causal/interview_scheme/interview_scheme_5.png"" style=""width: 300px; height: auto;"">
          </div>
          <div style=""text-align: center; margin-left: 20px;"">
            <p style=""font-size: 24px; font-weight: bold;"">Event 2</p>
            <img src=""images/causal/interview_scheme/interview_scheme_2.png"" style=""width: 300px; height: auto;"">
          </div>
        </div>
        <p style=""text-align: center; margin-top: 20px;"">Did one event cause the other?</p>","1","5","2","true","interview_scheme"
"","","","","","html-button-response","18","139778","0.0-18.0","","6898","
        <div style=""display: flex; justify-content: center; align-items: center;"">
          <div style=""text-align: center; margin-right: 20px;"">
            <p style=""font-size: 24px; font-weight: bold;"">Event 1</p>
            <img src=""images/causal/maintaining_a_car_semantic/maintaining_a_car_semantic_8.png"" style=""width: 300px; height: auto;"">
          </div>
          <div style=""text-align: center; margin-left: 20px;"">
            <p style=""font-size: 24px; font-weight: bold;"">Event 2</p>
            <img src=""images/causal/maintaining_a_car_semantic/maintaining_a_car_semantic_ten.png"" style=""width: 300px; height: auto;"">
          </div>
        </div>
        <p style=""text-align: center; margin-top: 20px;"">Did one event cause the other?</p>","0","8","10","true","maintaining_a_car_semantic"
"","","","","","html-button-response","19","146232","0.0-19.0","","6453","
        <div style=""display: flex; justify-content: center; align-items: center;"">
          <div style=""text-align: center; margin-right: 20px;"">
            <p style=""font-size: 24px; font-weight: bold;"">Event 1</p>
            <img src=""images/causal/package_causal/package_causal_ten.png"" style=""width: 300px; height: auto;"">
          </div>
          <div style=""text-align: center; margin-left: 20px;"">
            <p style=""font-size: 24px; font-weight: bold;"">Event 2</p>
            <img src=""images/causal/package_causal/package_causal_1.png"" style=""width: 300px; height: auto;"">
          </div>
        </div>
        <p style=""text-align: center; margin-top: 20px;"">Did one event cause the other?</p>","2","10","1","true","package_causal"
"","","","","","html-button-response","20","152810","0.0-20.0","","6577","
        <div style=""display: flex; justify-content: center; align-items: center;"">
          <div style=""text-align: center; margin-right: 20px;"">
            <p style=""font-size: 24px; font-weight: bold;"">Event 1</p>
            <img src=""images/causal/physical_activity_semantic/physical_activity_semantic_9.png"" style=""width: 300px; height: auto;"">
          </div>
          <div style=""text-align: center; margin-left: 20px;"">
            <p style=""font-size: 24px; font-weight: bold;"">Event 2</p>
            <img src=""images/causal/physical_activity_semantic/physical_activity_semantic_4.png"" style=""width: 300px; height: auto;"">
          </div>
        </div>
        <p style=""text-align: center; margin-top: 20px;"">Did one event cause the other?</p>","2","9","4","true","physical_activity_semantic"
"","","","","","html-button-response","21","167938","0.0-21.0","","15127","
        <div style=""display: flex; justify-content: center; align-items: center;"">
          <div style=""text-align: center; margin-right: 20px;"">
            <p style=""font-size: 24px; font-weight: bold;"">Event 1</p>
            <img src=""images/causal/physical_activity_semantic/physical_activity_semantic_3.png"" style=""width: 300px; height: auto;"">
          </div>
          <div style=""text-align: center; margin-left: 20px;"">
            <p style=""font-size: 24px; font-weight: bold;"">Event 2</p>
            <img src=""images/causal/physical_activity_semantic/physical_activity_semantic_1.png"" style=""width: 300px; height: auto;"">
          </div>
        </div>
        <p style=""text-align: center; margin-top: 20px;"">Did one event cause the other?</p>","1","3","1","true","physical_activity_semantic"
"","","","","","html-button-response","22","175278","0.0-22.0","","7339","
        <div style=""display: flex; justify-content: center; align-items: center;"">
          <div style=""text-align: center; margin-right: 20px;"">
            <p style=""font-size: 24px; font-weight: bold;"">Event 1</p>
            <img src=""images/causal/maintaining_a_car_semantic/maintaining_a_car_semantic_9.png"" style=""width: 300px; height: auto;"">
          </div>
          <div style=""text-align: center; margin-left: 20px;"">
            <p style=""font-size: 24px; font-weight: bold;"">Event 2</p>
            <img src=""images/causal/maintaining_a_car_semantic/maintaining_a_car_semantic_1.png"" style=""width: 300px; height: auto;"">
          </div>
        </div>
        <p style=""text-align: center; margin-top: 20px;"">Did one event cause the other?</p>","1","9","1","true","maintaining_a_car_semantic"
"","","","","","html-button-response","23","182672","0.0-23.0","","7393","
        <div style=""display: flex; justify-content: center; align-items: center;"">
          <div style=""text-align: center; margin-right: 20px;"">
            <p style=""font-size: 24px; font-weight: bold;"">Event 1</p>
            <img src=""images/causal/physical_activity_semantic/physical_activity_semantic_5.png"" style=""width: 300px; height: auto;"">
          </div>
          <div style=""text-align: center; margin-left: 20px;"">
            <p style=""font-size: 24px; font-weight: bold;"">Event 2</p>
            <img src=""images/causal/physical_activity_semantic/physical_activity_semantic_3.png"" style=""width: 300px; height: auto;"">
          </div>
        </div>
        <p style=""text-align: center; margin-top: 20px;"">Did one event cause the other?</p>","2","5","3","true","physical_activity_semantic"
"","","","","","html-button-response","24","188540","0.0-24.0","","5867","
        <div style=""display: flex; justify-content: center; align-items: center;"">
          <div style=""text-align: center; margin-right: 20px;"">
            <p style=""font-size: 24px; font-weight: bold;"">Event 1</p>
            <img src=""images/causal/physical_activity_semantic/physical_activity_semantic_9.png"" style=""width: 300px; height: auto;"">
          </div>
          <div style=""text-align: center; margin-left: 20px;"">
            <p style=""font-size: 24px; font-weight: bold;"">Event 2</p>
            <img src=""images/causal/physical_activity_semantic/physical_activity_semantic_ten.png"" style=""width: 300px; height: auto;"">
          </div>
        </div>
        <p style=""text-align: center; margin-top: 20px;"">Did one event cause the other?</p>","2","9","10","true","physical_activity_semantic"
"","","","","","html-button-response","25","195048","0.0-25.0","","6507","
        <div style=""display: flex; justify-content: center; align-items: center;"">
          <div style=""text-align: center; margin-right: 20px;"">
            <p style=""font-size: 24px; font-weight: bold;"">Event 1</p>
            <img src=""images/causal/package_causal/package_causal_3.png"" style=""width: 300px; height: auto;"">
          </div>
          <div style=""text-align: center; margin-left: 20px;"">
            <p style=""font-size: 24px; font-weight: bold;"">Event 2</p>
            <img src=""images/causal/package_causal/package_causal_4.png"" style=""width: 300px; height: auto;"">
          </div>
        </div>
        <p style=""text-align: center; margin-top: 20px;"">Did one event cause the other?</p>","0","3","4","true","package_causal"
"","","","","","html-button-response","26","207058","0.0-26.0","","12009","
        <div style=""display: flex; justify-content: center; align-items: center;"">
          <div style=""text-align: center; margin-right: 20px;"">
            <p style=""font-size: 24px; font-weight: bold;"">Event 1</p>
            <img src=""images/causal/museum_causal/museum_causal_ten.png"" style=""width: 300px; height: auto;"">
          </div>
          <div style=""text-align: center; margin-left: 20px;"">
            <p style=""font-size: 24px; font-weight: bold;"">Event 2</p>
            <img src=""images/causal/museum_causal/museum_causal_8.png"" style=""width: 300px; height: auto;"">
          </div>
        </div>
        <p style=""text-align: center; margin-top: 20px;"">Did one event cause the other?</p>","0","10","8","true","museum_causal"
"","","","","","html-button-response","27","212572","0.0-27.0","","5513","
        <div style=""display: flex; justify-content: center; align-items: center;"">
          <div style=""text-align: center; margin-right: 20px;"">
            <p style=""font-size: 24px; font-weight: bold;"">Event 1</p>
            <img src=""images/causal/interview_scheme/interview_scheme_2.png"" style=""width: 300px; height: auto;"">
          </div>
          <div style=""text-align: center; margin-left: 20px;"">
            <p style=""font-size: 24px; font-weight: bold;"">Event 2</p>
            <img src=""images/causal/interview_scheme/interview_scheme_8.png"" style=""width: 300px; height: auto;"">
          </div>
        </div>
        <p style=""text-align: center; margin-top: 20px;"">Did one event cause the other?</p>","0","2","8","true","interview_scheme"
"","","","","","html-button-response","28","228350","0.0-28.0","","15777","
        <div style=""display: flex; justify-content: center; align-items: center;"">
          <div style=""text-align: center; margin-right: 20px;"">
            <p style=""font-size: 24px; font-weight: bold;"">Event 1</p>
            <img src=""images/causal/kitchen_operations_semantic/kitchen_operations_semantic_5.png"" style=""width: 300px; height: auto;"">
          </div>
          <div style=""text-align: center; margin-left: 20px;"">
            <p style=""font-size: 24px; font-weight: bold;"">Event 2</p>
            <img src=""images/causal/kitchen_operations_semantic/kitchen_operations_semantic_7.png"" style=""width: 300px; height: auto;"">
          </div>
        </div>
        <p style=""text-align: center; margin-top: 20px;"">Did one event cause the other?</p>","1","5","7","true","kitchen_operations_semantic"
"","","","","","html-button-response","29","249206","0.0-29.0","","20855","
        <div style=""display: flex; justify-content: center; align-items: center;"">
          <div style=""text-align: center; margin-right: 20px;"">
            <p style=""font-size: 24px; font-weight: bold;"">Event 1</p>
            <img src=""images/causal/physical_activity_semantic/physical_activity_semantic_ten.png"" style=""width: 300px; height: auto;"">
          </div>
          <div style=""text-align: center; margin-left: 20px;"">
            <p style=""font-size: 24px; font-weight: bold;"">Event 2</p>
            <img src=""images/causal/physical_activity_semantic/physical_activity_semantic_1.png"" style=""width: 300px; height: auto;"">
          </div>
        </div>
        <p style=""text-align: center; margin-top: 20px;"">Did one event cause the other?</p>","2","10","1","true","physical_activity_semantic"
"","","","","","html-button-response","30","254780","0.0-30.0","","5573","
        <div style=""display: flex; justify-content: center; align-items: center;"">
          <div style=""text-align: center; margin-right: 20px;"">
            <p style=""font-size: 24px; font-weight: bold;"">Event 1</p>
            <img src=""images/causal/physical_activity_semantic/physical_activity_semantic_1.png"" style=""width: 300px; height: auto;"">
          </div>
          <div style=""text-align: center; margin-left: 20px;"">
            <p style=""font-size: 24px; font-weight: bold;"">Event 2</p>
            <img src=""images/causal/physical_activity_semantic/physical_activity_semantic_2.png"" style=""width: 300px; height: auto;"">
          </div>
        </div>
        <p style=""text-align: center; margin-top: 20px;"">Did one event cause the other?</p>","2","1","2","true","physical_activity_semantic"
"","","","","","html-button-response","31","260351","0.0-31.0","","5571","
        <div style=""display: flex; justify-content: center; align-items: center;"">
          <div style=""text-align: center; margin-right: 20px;"">
            <p style=""font-size: 24px; font-weight: bold;"">Event 1</p>
            <img src=""images/causal/hotel_scheme/hotel_scheme_2.png"" style=""width: 300px; height: auto;"">
          </div>
          <div style=""text-align: center; margin-left: 20px;"">
            <p style=""font-size: 24px; font-weight: bold;"">Event 2</p>
            <img src=""images/causal/hotel_scheme/hotel_scheme_8.png"" style=""width: 300px; height: auto;"">
          </div>
        </div>
        <p style=""text-align: center; margin-top: 20px;"">Did one event cause the other?</p>","0","2","8","true","hotel_scheme"
"","","","","","html-button-response","32","265891","0.0-32.0","","5539","
        <div style=""display: flex; justify-content: center; align-items: center;"">
          <div style=""text-align: center; margin-right: 20px;"">
            <p style=""font-size: 24px; font-weight: bold;"">Event 1</p>
            <img src=""images/causal/package_causal/package_causal_8.png"" style=""width: 300px; height: auto;"">
          </div>
          <div style=""text-align: center; margin-left: 20px;"">
            <p style=""font-size: 24px; font-weight: bold;"">Event 2</p>
            <img src=""images/causal/package_causal/package_causal_ten.png"" style=""width: 300px; height: auto;"">
          </div>
        </div>
        <p style=""text-align: center; margin-top: 20px;"">Did one event cause the other?</p>","0","8","10","true","package_causal"
"","","","","","html-button-response","33","273922","0.0-33.0","","8029","
        <div style=""display: flex; justify-content: center; align-items: center;"">
          <div style=""text-align: center; margin-right: 20px;"">
            <p style=""font-size: 24px; font-weight: bold;"">Event 1</p>
            <img src=""images/causal/package_causal/package_causal_5.png"" style=""width: 300px; height: auto;"">
          </div>
          <div style=""text-align: center; margin-left: 20px;"">
            <p style=""font-size: 24px; font-weight: bold;"">Event 2</p>
            <img src=""images/causal/package_causal/package_causal_7.png"" style=""width: 300px; height: auto;"">
          </div>
        </div>
        <p style=""text-align: center; margin-top: 20px;"">Did one event cause the other?</p>","0","5","7","true","package_causal"
"","","","","","html-button-response","34","282534","0.0-34.0","","8611","
        <div style=""display: flex; justify-content: center; align-items: center;"">
          <div style=""text-align: center; margin-right: 20px;"">
            <p style=""font-size: 24px; font-weight: bold;"">Event 1</p>
            <img src=""images/causal/maintaining_a_car_semantic/maintaining_a_car_semantic_7.png"" style=""width: 300px; height: auto;"">
          </div>
          <div style=""text-align: center; margin-left: 20px;"">
            <p style=""font-size: 24px; font-weight: bold;"">Event 2</p>
            <img src=""images/causal/maintaining_a_car_semantic/maintaining_a_car_semantic_ten.png"" style=""width: 300px; height: auto;"">
          </div>
        </div>
        <p style=""text-align: center; margin-top: 20px;"">Did one event cause the other?</p>","0","7","10","true","maintaining_a_car_semantic"
"","","","","","html-button-response","35","288576","0.0-35.0","","6041","
        <div style=""display: flex; justify-content: center; align-items: center;"">
          <div style=""text-align: center; margin-right: 20px;"">
            <p style=""font-size: 24px; font-weight: bold;"">Event 1</p>
            <img src=""images/causal/interview_scheme/interview_scheme_ten.png"" style=""width: 300px; height: auto;"">
          </div>
          <div style=""text-align: center; margin-left: 20px;"">
            <p style=""font-size: 24px; font-weight: bold;"">Event 2</p>
            <img src=""images/causal/interview_scheme/interview_scheme_8.png"" style=""width: 300px; height: auto;"">
          </div>
        </div>
        <p style=""text-align: center; margin-top: 20px;"">Did one event cause the other?</p>","1","10","8","true","interview_scheme"
"","","","","","html-button-response","36","296004","0.0-36.0","","7427","
        <div style=""display: flex; justify-content: center; align-items: center;"">
          <div style=""text-align: center; margin-right: 20px;"">
            <p style=""font-size: 24px; font-weight: bold;"">Event 1</p>
            <img src=""images/causal/interview_scheme/interview_scheme_ten.png"" style=""width: 300px; height: auto;"">
          </div>
          <div style=""text-align: center; margin-left: 20px;"">
            <p style=""font-size: 24px; font-weight: bold;"">Event 2</p>
            <img src=""images/causal/interview_scheme/interview_scheme_7.png"" style=""width: 300px; height: auto;"">
          </div>
        </div>
        <p style=""text-align: center; margin-top: 20px;"">Did one event cause the other?</p>","1","10","7","true","interview_scheme"
"","","","","","html-button-response","37","302322","0.0-37.0","","6317","
        <div style=""display: flex; justify-content: center; align-items: center;"">
          <div style=""text-align: center; margin-right: 20px;"">
            <p style=""font-size: 24px; font-weight: bold;"">Event 1</p>
            <img src=""images/causal/package_causal/package_causal_9.png"" style=""width: 300px; height: auto;"">
          </div>
          <div style=""text-align: center; margin-left: 20px;"">
            <p style=""font-size: 24px; font-weight: bold;"">Event 2</p>
            <img src=""images/causal/package_causal/package_causal_8.png"" style=""width: 300px; height: auto;"">
          </div>
        </div>
        <p style=""text-align: center; margin-top: 20px;"">Did one event cause the other?</p>","1","9","8","true","package_causal"
"","","","","","html-button-response","38","308140","0.0-38.0","","5817","
        <div style=""display: flex; justify-content: center; align-items: center;"">
          <div style=""text-align: center; margin-right: 20px;"">
            <p style=""font-size: 24px; font-weight: bold;"">Event 1</p>
            <img src=""images/causal/kitchen_operations_semantic/kitchen_operations_semantic_7.png"" style=""width: 300px; height: auto;"">
          </div>
          <div style=""text-align: center; margin-left: 20px;"">
            <p style=""font-size: 24px; font-weight: bold;"">Event 2</p>
            <img src=""images/causal/kitchen_operations_semantic/kitchen_operations_semantic_3.png"" style=""width: 300px; height: auto;"">
          </div>
        </div>
        <p style=""text-align: center; margin-top: 20px;"">Did one event cause the other?</p>","0","7","3","true","kitchen_operations_semantic"
"","","","","","html-button-response","39","314142","0.0-39.0","","6001","
        <div style=""display: flex; justify-content: center; align-items: center;"">
          <div style=""text-align: center; margin-right: 20px;"">
            <p style=""font-size: 24px; font-weight: bold;"">Event 1</p>
            <img src=""images/causal/hotel_scheme/hotel_scheme_7.png"" style=""width: 300px; height: auto;"">
          </div>
          <div style=""text-align: center; margin-left: 20px;"">
            <p style=""font-size: 24px; font-weight: bold;"">Event 2</p>
            <img src=""images/causal/hotel_scheme/hotel_scheme_2.png"" style=""width: 300px; height: auto;"">
          </div>
        </div>
        <p style=""text-align: center; margin-top: 20px;"">Did one event cause the other?</p>","1","7","2","true","hotel_scheme"
"","","","","","html-button-response","40","320924","0.0-40.0","","6781","
        <div style=""display: flex; justify-content: center; align-items: center;"">
          <div style=""text-align: center; margin-right: 20px;"">
            <p style=""font-size: 24px; font-weight: bold;"">Event 1</p>
            <img src=""images/causal/market_semantic/market_semantic_ten.png"" style=""width: 300px; height: auto;"">
          </div>
          <div style=""text-align: center; margin-left: 20px;"">
            <p style=""font-size: 24px; font-weight: bold;"">Event 2</p>
            <img src=""images/causal/market_semantic/market_semantic_6.png"" style=""width: 300px; height: auto;"">
          </div>
        </div>
        <p style=""text-align: center; margin-top: 20px;"">Did one event cause the other?</p>","2","10","6","true","market_semantic"
"","","","","","html-button-response","41","327057","0.0-41.0","","6133","
        <div style=""display: flex; justify-content: center; align-items: center;"">
          <div style=""text-align: center; margin-right: 20px;"">
            <p style=""font-size: 24px; font-weight: bold;"">Event 1</p>
            <img src=""images/causal/kitchen_operations_semantic/kitchen_operations_semantic_7.png"" style=""width: 300px; height: auto;"">
          </div>
          <div style=""text-align: center; margin-left: 20px;"">
            <p style=""font-size: 24px; font-weight: bold;"">Event 2</p>
            <img src=""images/causal/kitchen_operations_semantic/kitchen_operations_semantic_1.png"" style=""width: 300px; height: auto;"">
          </div>
        </div>
        <p style=""text-align: center; margin-top: 20px;"">Did one event cause the other?</p>","0","7","1","true","kitchen_operations_semantic"
"","","","","","html-button-response","42","333136","0.0-42.0","","6078","
        <div style=""display: flex; justify-content: center; align-items: center;"">
          <div style=""text-align: center; margin-right: 20px;"">
            <p style=""font-size: 24px; font-weight: bold;"">Event 1</p>
            <img src=""images/causal/maintaining_a_car_semantic/maintaining_a_car_semantic_6.png"" style=""width: 300px; height: auto;"">
          </div>
          <div style=""text-align: center; margin-left: 20px;"">
            <p style=""font-size: 24px; font-weight: bold;"">Event 2</p>
            <img src=""images/causal/maintaining_a_car_semantic/maintaining_a_car_semantic_4.png"" style=""width: 300px; height: auto;"">
          </div>
        </div>
        <p style=""text-align: center; margin-top: 20px;"">Did one event cause the other?</p>","0","6","4","true","maintaining_a_car_semantic"
"","","","","","html-button-response","43","338870","0.0-43.0","","5733","
        <div style=""display: flex; justify-content: center; align-items: center;"">
          <div style=""text-align: center; margin-right: 20px;"">
            <p style=""font-size: 24px; font-weight: bold;"">Event 1</p>
            <img src=""images/causal/museum_causal/museum_causal_2.png"" style=""width: 300px; height: auto;"">
          </div>
          <div style=""text-align: center; margin-left: 20px;"">
            <p style=""font-size: 24px; font-weight: bold;"">Event 2</p>
            <img src=""images/causal/museum_causal/museum_causal_ten.png"" style=""width: 300px; height: auto;"">
          </div>
        </div>
        <p style=""text-align: center; margin-top: 20px;"">Did one event cause the other?</p>","2","2","10","true","museum_causal"
"","","","","","html-button-response","44","345113","0.0-44.0","","6243","
        <div style=""display: flex; justify-content: center; align-items: center;"">
          <div style=""text-align: center; margin-right: 20px;"">
            <p style=""font-size: 24px; font-weight: bold;"">Event 1</p>
            <img src=""images/causal/physical_activity_semantic/physical_activity_semantic_9.png"" style=""width: 300px; height: auto;"">
          </div>
          <div style=""text-align: center; margin-left: 20px;"">
            <p style=""font-size: 24px; font-weight: bold;"">Event 2</p>
            <img src=""images/causal/physical_activity_semantic/physical_activity_semantic_1.png"" style=""width: 300px; height: auto;"">
          </div>
        </div>
        <p style=""text-align: center; margin-top: 20px;"">Did one event cause the other?</p>","2","9","1","true","physical_activity_semantic"
"","","","","","html-button-response","45","351151","0.0-45.0","","6037","
        <div style=""display: flex; justify-content: center; align-items: center;"">
          <div style=""text-align: center; margin-right: 20px;"">
            <p style=""font-size: 24px; font-weight: bold;"">Event 1</p>
            <img src=""images/causal/interview_scheme/interview_scheme_ten.png"" style=""width: 300px; height: auto;"">
          </div>
          <div style=""text-align: center; margin-left: 20px;"">
            <p style=""font-size: 24px; font-weight: bold;"">Event 2</p>
            <img src=""images/causal/interview_scheme/interview_scheme_6.png"" style=""width: 300px; height: auto;"">
          </div>
        </div>
        <p style=""text-align: center; margin-top: 20px;"">Did one event cause the other?</p>","1","10","6","true","interview_scheme"
"","","","","","html-button-response","46","356909","0.0-46.0","","5757","
        <div style=""display: flex; justify-content: center; align-items: center;"">
          <div style=""text-align: center; margin-right: 20px;"">
            <p style=""font-size: 24px; font-weight: bold;"">Event 1</p>
            <img src=""images/causal/interview_scheme/interview_scheme_2.png"" style=""width: 300px; height: auto;"">
          </div>
          <div style=""text-align: center; margin-left: 20px;"">
            <p style=""font-size: 24px; font-weight: bold;"">Event 2</p>
            <img src=""images/causal/interview_scheme/interview_scheme_4.png"" style=""width: 300px; height: auto;"">
          </div>
        </div>
        <p style=""text-align: center; margin-top: 20px;"">Did one event cause the other?</p>","0","2","4","true","interview_scheme"
"","","","","","html-button-response","47","363373","0.0-47.0","","6463","
        <div style=""display: flex; justify-content: center; align-items: center;"">
          <div style=""text-align: center; margin-right: 20px;"">
            <p style=""font-size: 24px; font-weight: bold;"">Event 1</p>
            <img src=""images/causal/museum_causal/museum_causal_1.png"" style=""width: 300px; height: auto;"">
          </div>
          <div style=""text-align: center; margin-left: 20px;"">
            <p style=""font-size: 24px; font-weight: bold;"">Event 2</p>
            <img src=""images/causal/museum_causal/museum_causal_5.png"" style=""width: 300px; height: auto;"">
          </div>
        </div>
        <p style=""text-align: center; margin-top: 20px;"">Did one event cause the other?</p>","0","1","5","true","museum_causal"
"","","","","","html-button-response","48","369647","0.0-48.0","","6273","
        <div style=""display: flex; justify-content: center; align-items: center;"">
          <div style=""text-align: center; margin-right: 20px;"">
            <p style=""font-size: 24px; font-weight: bold;"">Event 1</p>
            <img src=""images/causal/hotel_scheme/hotel_scheme_8.png"" style=""width: 300px; height: auto;"">
          </div>
          <div style=""text-align: center; margin-left: 20px;"">
            <p style=""font-size: 24px; font-weight: bold;"">Event 2</p>
            <img src=""images/causal/hotel_scheme/hotel_scheme_9.png"" style=""width: 300px; height: auto;"">
          </div>
        </div>
        <p style=""text-align: center; margin-top: 20px;"">Did one event cause the other?</p>","2","8","9","true","hotel_scheme"
"","","","","","html-button-response","49","383300","0.0-49.0","","13651","
        <div style=""display: flex; justify-content: center; align-items: center;"">
          <div style=""text-align: center; margin-right: 20px;"">
            <p style=""font-size: 24px; font-weight: bold;"">Event 1</p>
            <img src=""images/causal/hotel_scheme/hotel_scheme_ten.png"" style=""width: 300px; height: auto;"">
          </div>
          <div style=""text-align: center; margin-left: 20px;"">
            <p style=""font-size: 24px; font-weight: bold;"">Event 2</p>
            <img src=""images/causal/hotel_scheme/hotel_scheme_5.png"" style=""width: 300px; height: auto;"">
          </div>
        </div>
        <p style=""text-align: center; margin-top: 20px;"">Did one event cause the other?</p>","0","10","5","true","hotel_scheme"
"","","","","","html-button-response","50","389119","0.0-50.0","","5819","
        <div style=""display: flex; justify-content: center; align-items: center;"">
          <div style=""text-align: center; margin-right: 20px;"">
            <p style=""font-size: 24px; font-weight: bold;"">Event 1</p>
            <img src=""images/causal/museum_causal/museum_causal_7.png"" style=""width: 300px; height: auto;"">
          </div>
          <div style=""text-align: center; margin-left: 20px;"">
            <p style=""font-size: 24px; font-weight: bold;"">Event 2</p>
            <img src=""images/causal/museum_causal/museum_causal_6.png"" style=""width: 300px; height: auto;"">
          </div>
        </div>
        <p style=""text-align: center; margin-top: 20px;"">Did one event cause the other?</p>","1","7","6","true","museum_causal"
"","","","","","html-button-response","51","394701","0.0-51.0","","5581","
        <div style=""display: flex; justify-content: center; align-items: center;"">
          <div style=""text-align: center; margin-right: 20px;"">
            <p style=""font-size: 24px; font-weight: bold;"">Event 1</p>
            <img src=""images/causal/package_causal/package_causal_ten.png"" style=""width: 300px; height: auto;"">
          </div>
          <div style=""text-align: center; margin-left: 20px;"">
            <p style=""font-size: 24px; font-weight: bold;"">Event 2</p>
            <img src=""images/causal/package_causal/package_causal_3.png"" style=""width: 300px; height: auto;"">
          </div>
        </div>
        <p style=""text-align: center; margin-top: 20px;"">Did one event cause the other?</p>","2","10","3","true","package_causal"
"","","","","","html-button-response","52","400729","0.0-52.0","","6027","
        <div style=""display: flex; justify-content: center; align-items: center;"">
          <div style=""text-align: center; margin-right: 20px;"">
            <p style=""font-size: 24px; font-weight: bold;"">Event 1</p>
            <img src=""images/causal/kitchen_operations_semantic/kitchen_operations_semantic_3.png"" style=""width: 300px; height: auto;"">
          </div>
          <div style=""text-align: center; margin-left: 20px;"">
            <p style=""font-size: 24px; font-weight: bold;"">Event 2</p>
            <img src=""images/causal/kitchen_operations_semantic/kitchen_operations_semantic_ten.png"" style=""width: 300px; height: auto;"">
          </div>
        </div>
        <p style=""text-align: center; margin-top: 20px;"">Did one event cause the other?</p>","2","3","10","true","kitchen_operations_semantic"
"","","","","","html-button-response","53","414993","0.0-53.0","","14263","
        <div style=""display: flex; justify-content: center; align-items: center;"">
          <div style=""text-align: center; margin-right: 20px;"">
            <p style=""font-size: 24px; font-weight: bold;"">Event 1</p>
            <img src=""images/causal/market_semantic/market_semantic_7.png"" style=""width: 300px; height: auto;"">
          </div>
          <div style=""text-align: center; margin-left: 20px;"">
            <p style=""font-size: 24px; font-weight: bold;"">Event 2</p>
            <img src=""images/causal/market_semantic/market_semantic_3.png"" style=""width: 300px; height: auto;"">
          </div>
        </div>
        <p style=""text-align: center; margin-top: 20px;"">Did one event cause the other?</p>","1","7","3","true","market_semantic"
"","","","","","html-button-response","54","420685","0.0-54.0","","5691","
        <div style=""display: flex; justify-content: center; align-items: center;"">
          <div style=""text-align: center; margin-right: 20px;"">
            <p style=""font-size: 24px; font-weight: bold;"">Event 1</p>
            <img src=""images/causal/physical_activity_semantic/physical_activity_semantic_3.png"" style=""width: 300px; height: auto;"">
          </div>
          <div style=""text-align: center; margin-left: 20px;"">
            <p style=""font-size: 24px; font-weight: bold;"">Event 2</p>
            <img src=""images/causal/physical_activity_semantic/physical_activity_semantic_ten.png"" style=""width: 300px; height: auto;"">
          </div>
        </div>
        <p style=""text-align: center; margin-top: 20px;"">Did one event cause the other?</p>","2","3","10","true","physical_activity_semantic"
"","","","","","html-button-response","55","426287","0.0-55.0","","5601","
        <div style=""display: flex; justify-content: center; align-items: center;"">
          <div style=""text-align: center; margin-right: 20px;"">
            <p style=""font-size: 24px; font-weight: bold;"">Event 1</p>
            <img src=""images/causal/market_semantic/market_semantic_ten.png"" style=""width: 300px; height: auto;"">
          </div>
          <div style=""text-align: center; margin-left: 20px;"">
            <p style=""font-size: 24px; font-weight: bold;"">Event 2</p>
            <img src=""images/causal/market_semantic/market_semantic_9.png"" style=""width: 300px; height: auto;"">
          </div>
        </div>
        <p style=""text-align: center; margin-top: 20px;"">Did one event cause the other?</p>","0","10","9","true","market_semantic"
"","","","","","html-button-response","56","438401","0.0-56.0","","12113","
        <div style=""display: flex; justify-content: center; align-items: center;"">
          <div style=""text-align: center; margin-right: 20px;"">
            <p style=""font-size: 24px; font-weight: bold;"">Event 1</p>
            <img src=""images/causal/maintaining_a_car_semantic/maintaining_a_car_semantic_5.png"" style=""width: 300px; height: auto;"">
          </div>
          <div style=""text-align: center; margin-left: 20px;"">
            <p style=""font-size: 24px; font-weight: bold;"">Event 2</p>
            <img src=""images/causal/maintaining_a_car_semantic/maintaining_a_car_semantic_2.png"" style=""width: 300px; height: auto;"">
          </div>
        </div>
        <p style=""text-align: center; margin-top: 20px;"">Did one event cause the other?</p>","2","5","2","true","maintaining_a_car_semantic"
"","","","","","html-button-response","57","444405","0.0-57.0","","6004","
        <div style=""display: flex; justify-content: center; align-items: center;"">
          <div style=""text-align: center; margin-right: 20px;"">
            <p style=""font-size: 24px; font-weight: bold;"">Event 1</p>
            <img src=""images/causal/physical_activity_semantic/physical_activity_semantic_7.png"" style=""width: 300px; height: auto;"">
          </div>
          <div style=""text-align: center; margin-left: 20px;"">
            <p style=""font-size: 24px; font-weight: bold;"">Event 2</p>
            <img src=""images/causal/physical_activity_semantic/physical_activity_semantic_1.png"" style=""width: 300px; height: auto;"">
          </div>
        </div>
        <p style=""text-align: center; margin-top: 20px;"">Did one event cause the other?</p>","2","7","1","true","physical_activity_semantic"
"","","","","","html-button-response","58","450393","0.0-58.0","","5987","
        <div style=""display: flex; justify-content: center; align-items: center;"">
          <div style=""text-align: center; margin-right: 20px;"">
            <p style=""font-size: 24px; font-weight: bold;"">Event 1</p>
            <img src=""images/causal/museum_causal/museum_causal_1.png"" style=""width: 300px; height: auto;"">
          </div>
          <div style=""text-align: center; margin-left: 20px;"">
            <p style=""font-size: 24px; font-weight: bold;"">Event 2</p>
            <img src=""images/causal/museum_causal/museum_causal_9.png"" style=""width: 300px; height: auto;"">
          </div>
        </div>
        <p style=""text-align: center; margin-top: 20px;"">Did one event cause the other?</p>","2","1","9","true","museum_causal"
"","","","","","html-button-response","59","456417","0.0-59.0","","6023","
        <div style=""display: flex; justify-content: center; align-items: center;"">
          <div style=""text-align: center; margin-right: 20px;"">
            <p style=""font-size: 24px; font-weight: bold;"">Event 1</p>
            <img src=""images/causal/museum_causal/museum_causal_5.png"" style=""width: 300px; height: auto;"">
          </div>
          <div style=""text-align: center; margin-left: 20px;"">
            <p style=""font-size: 24px; font-weight: bold;"">Event 2</p>
            <img src=""images/causal/museum_causal/museum_causal_7.png"" style=""width: 300px; height: auto;"">
          </div>
        </div>
        <p style=""text-align: center; margin-top: 20px;"">Did one event cause the other?</p>","2","5","7","true","museum_causal"
"","","","","","html-button-response","60","462431","0.0-60.0","","6013","
        <div style=""display: flex; justify-content: center; align-items: center;"">
          <div style=""text-align: center; margin-right: 20px;"">
            <p style=""font-size: 24px; font-weight: bold;"">Event 1</p>
            <img src=""images/causal/kitchen_operations_semantic/kitchen_operations_semantic_5.png"" style=""width: 300px; height: auto;"">
          </div>
          <div style=""text-align: center; margin-left: 20px;"">
            <p style=""font-size: 24px; font-weight: bold;"">Event 2</p>
            <img src=""images/causal/kitchen_operations_semantic/kitchen_operations_semantic_3.png"" style=""width: 300px; height: auto;"">
          </div>
        </div>
        <p style=""text-align: center; margin-top: 20px;"">Did one event cause the other?</p>","2","5","3","true","kitchen_operations_semantic"
"","","","","","html-button-response","61","468319","0.0-61.0","","5887","
        <div style=""display: flex; justify-content: center; align-items: center;"">
          <div style=""text-align: center; margin-right: 20px;"">
            <p style=""font-size: 24px; font-weight: bold;"">Event 1</p>
            <img src=""images/causal/physical_activity_semantic/physical_activity_semantic_6.png"" style=""width: 300px; height: auto;"">
          </div>
          <div style=""text-align: center; margin-left: 20px;"">
            <p style=""font-size: 24px; font-weight: bold;"">Event 2</p>
            <img src=""images/causal/physical_activity_semantic/physical_activity_semantic_3.png"" style=""width: 300px; height: auto;"">
          </div>
        </div>
        <p style=""text-align: center; margin-top: 20px;"">Did one event cause the other?</p>","2","6","3","true","physical_activity_semantic"
"","","","","","html-button-response","62","476991","0.0-62.0","","8671","
        <div style=""display: flex; justify-content: center; align-items: center;"">
          <div style=""text-align: center; margin-right: 20px;"">
            <p style=""font-size: 24px; font-weight: bold;"">Event 1</p>
            <img src=""images/causal/hotel_scheme/hotel_scheme_5.png"" style=""width: 300px; height: auto;"">
          </div>
          <div style=""text-align: center; margin-left: 20px;"">
            <p style=""font-size: 24px; font-weight: bold;"">Event 2</p>
            <img src=""images/causal/hotel_scheme/hotel_scheme_1.png"" style=""width: 300px; height: auto;"">
          </div>
        </div>
        <p style=""text-align: center; margin-top: 20px;"">Did one event cause the other?</p>","1","5","1","true","hotel_scheme"
"","","","","","html-button-response","63","484563","0.0-63.0","","7571","
        <div style=""display: flex; justify-content: center; align-items: center;"">
          <div style=""text-align: center; margin-right: 20px;"">
            <p style=""font-size: 24px; font-weight: bold;"">Event 1</p>
            <img src=""images/causal/market_semantic/market_semantic_2.png"" style=""width: 300px; height: auto;"">
          </div>
          <div style=""text-align: center; margin-left: 20px;"">
            <p style=""font-size: 24px; font-weight: bold;"">Event 2</p>
            <img src=""images/causal/market_semantic/market_semantic_5.png"" style=""width: 300px; height: auto;"">
          </div>
        </div>
        <p style=""text-align: center; margin-top: 20px;"">Did one event cause the other?</p>","0","2","5","true","market_semantic"
"","","","","","html-button-response","64","490381","0.0-64.0","","5817","
        <div style=""display: flex; justify-content: center; align-items: center;"">
          <div style=""text-align: center; margin-right: 20px;"">
            <p style=""font-size: 24px; font-weight: bold;"">Event 1</p>
            <img src=""images/causal/interview_scheme/interview_scheme_8.png"" style=""width: 300px; height: auto;"">
          </div>
          <div style=""text-align: center; margin-left: 20px;"">
            <p style=""font-size: 24px; font-weight: bold;"">Event 2</p>
            <img src=""images/causal/interview_scheme/interview_scheme_9.png"" style=""width: 300px; height: auto;"">
          </div>
        </div>
        <p style=""text-align: center; margin-top: 20px;"">Did one event cause the other?</p>","0","8","9","true","interview_scheme"
"","","","","","html-button-response","65","496861","0.0-65.0","","6479","
        <div style=""display: flex; justify-content: center; align-items: center;"">
          <div style=""text-align: center; margin-right: 20px;"">
            <p style=""font-size: 24px; font-weight: bold;"">Event 1</p>
            <img src=""images/causal/hotel_scheme/hotel_scheme_ten.png"" style=""width: 300px; height: auto;"">
          </div>
          <div style=""text-align: center; margin-left: 20px;"">
            <p style=""font-size: 24px; font-weight: bold;"">Event 2</p>
            <img src=""images/causal/hotel_scheme/hotel_scheme_4.png"" style=""width: 300px; height: auto;"">
          </div>
        </div>
        <p style=""text-align: center; margin-top: 20px;"">Did one event cause the other?</p>","1","10","4","true","hotel_scheme"
"","","","","","html-button-response","66","502651","0.0-66.0","","5789","
        <div style=""display: flex; justify-content: center; align-items: center;"">
          <div style=""text-align: center; margin-right: 20px;"">
            <p style=""font-size: 24px; font-weight: bold;"">Event 1</p>
            <img src=""images/causal/interview_scheme/interview_scheme_1.png"" style=""width: 300px; height: auto;"">
          </div>
          <div style=""text-align: center; margin-left: 20px;"">
            <p style=""font-size: 24px; font-weight: bold;"">Event 2</p>
            <img src=""images/causal/interview_scheme/interview_scheme_3.png"" style=""width: 300px; height: auto;"">
          </div>
        </div>
        <p style=""text-align: center; margin-top: 20px;"">Did one event cause the other?</p>","0","1","3","true","interview_scheme"
"","","","","","html-button-response","67","509679","0.0-67.0","","7027","
        <div style=""display: flex; justify-content: center; align-items: center;"">
          <div style=""text-align: center; margin-right: 20px;"">
            <p style=""font-size: 24px; font-weight: bold;"">Event 1</p>
            <img src=""images/causal/maintaining_a_car_semantic/maintaining_a_car_semantic_1.png"" style=""width: 300px; height: auto;"">
          </div>
          <div style=""text-align: center; margin-left: 20px;"">
            <p style=""font-size: 24px; font-weight: bold;"">Event 2</p>
            <img src=""images/causal/maintaining_a_car_semantic/maintaining_a_car_semantic_4.png"" style=""width: 300px; height: auto;"">
          </div>
        </div>
        <p style=""text-align: center; margin-top: 20px;"">Did one event cause the other?</p>","0","1","4","true","maintaining_a_car_semantic"
"","","","","","html-button-response","68","515369","0.0-68.0","","5689","
        <div style=""display: flex; justify-content: center; align-items: center;"">
          <div style=""text-align: center; margin-right: 20px;"">
            <p style=""font-size: 24px; font-weight: bold;"">Event 1</p>
            <img src=""images/causal/museum_causal/museum_causal_4.png"" style=""width: 300px; height: auto;"">
          </div>
          <div style=""text-align: center; margin-left: 20px;"">
            <p style=""font-size: 24px; font-weight: bold;"">Event 2</p>
            <img src=""images/causal/museum_causal/museum_causal_8.png"" style=""width: 300px; height: auto;"">
          </div>
        </div>
        <p style=""text-align: center; margin-top: 20px;"">Did one event cause the other?</p>","2","4","8","true","museum_causal"
"","","","","","html-button-response","69","521245","0.0-69.0","","5875","
        <div style=""display: flex; justify-content: center; align-items: center;"">
          <div style=""text-align: center; margin-right: 20px;"">
            <p style=""font-size: 24px; font-weight: bold;"">Event 1</p>
            <img src=""images/causal/hotel_scheme/hotel_scheme_2.png"" style=""width: 300px; height: auto;"">
          </div>
          <div style=""text-align: center; margin-left: 20px;"">
            <p style=""font-size: 24px; font-weight: bold;"">Event 2</p>
            <img src=""images/causal/hotel_scheme/hotel_scheme_5.png"" style=""width: 300px; height: auto;"">
          </div>
        </div>
        <p style=""text-align: center; margin-top: 20px;"">Did one event cause the other?</p>","0","2","5","true","hotel_scheme"
"","","","","","html-button-response","70","526865","0.0-70.0","","5619","
        <div style=""display: flex; justify-content: center; align-items: center;"">
          <div style=""text-align: center; margin-right: 20px;"">
            <p style=""font-size: 24px; font-weight: bold;"">Event 1</p>
            <img src=""images/causal/interview_scheme/interview_scheme_6.png"" style=""width: 300px; height: auto;"">
          </div>
          <div style=""text-align: center; margin-left: 20px;"">
            <p style=""font-size: 24px; font-weight: bold;"">Event 2</p>
            <img src=""images/causal/interview_scheme/interview_scheme_1.png"" style=""width: 300px; height: auto;"">
          </div>
        </div>
        <p style=""text-align: center; margin-top: 20px;"">Did one event cause the other?</p>","1","6","1","true","interview_scheme"
"","","","","","html-button-response","71","532659","0.0-71.0","","5793","
        <div style=""display: flex; justify-content: center; align-items: center;"">
          <div style=""text-align: center; margin-right: 20px;"">
            <p style=""font-size: 24px; font-weight: bold;"">Event 1</p>
            <img src=""images/causal/hotel_scheme/hotel_scheme_7.png"" style=""width: 300px; height: auto;"">
          </div>
          <div style=""text-align: center; margin-left: 20px;"">
            <p style=""font-size: 24px; font-weight: bold;"">Event 2</p>
            <img src=""images/causal/hotel_scheme/hotel_scheme_4.png"" style=""width: 300px; height: auto;"">
          </div>
        </div>
        <p style=""text-align: center; margin-top: 20px;"">Did one event cause the other?</p>","1","7","4","true","hotel_scheme"
"","","","","","html-button-response","72","540735","0.0-72.0","","8075","
        <div style=""display: flex; justify-content: center; align-items: center;"">
          <div style=""text-align: center; margin-right: 20px;"">
            <p style=""font-size: 24px; font-weight: bold;"">Event 1</p>
            <img src=""images/causal/kitchen_operations_semantic/kitchen_operations_semantic_4.png"" style=""width: 300px; height: auto;"">
          </div>
          <div style=""text-align: center; margin-left: 20px;"">
            <p style=""font-size: 24px; font-weight: bold;"">Event 2</p>
            <img src=""images/causal/kitchen_operations_semantic/kitchen_operations_semantic_5.png"" style=""width: 300px; height: auto;"">
          </div>
        </div>
        <p style=""text-align: center; margin-top: 20px;"">Did one event cause the other?</p>","1","4","5","true","kitchen_operations_semantic"
"","","","","","html-button-response","73","556289","0.0-73.0","","15553","
        <div style=""display: flex; justify-content: center; align-items: center;"">
          <div style=""text-align: center; margin-right: 20px;"">
            <p style=""font-size: 24px; font-weight: bold;"">Event 1</p>
            <img src=""images/causal/maintaining_a_car_semantic/maintaining_a_car_semantic_3.png"" style=""width: 300px; height: auto;"">
          </div>
          <div style=""text-align: center; margin-left: 20px;"">
            <p style=""font-size: 24px; font-weight: bold;"">Event 2</p>
            <img src=""images/causal/maintaining_a_car_semantic/maintaining_a_car_semantic_8.png"" style=""width: 300px; height: auto;"">
          </div>
        </div>
        <p style=""text-align: center; margin-top: 20px;"">Did one event cause the other?</p>","0","3","8","true","maintaining_a_car_semantic"
"","","","","","html-button-response","74","562401","0.0-74.0","","6111","
        <div style=""display: flex; justify-content: center; align-items: center;"">
          <div style=""text-align: center; margin-right: 20px;"">
            <p style=""font-size: 24px; font-weight: bold;"">Event 1</p>
            <img src=""images/causal/hotel_scheme/hotel_scheme_3.png"" style=""width: 300px; height: auto;"">
          </div>
          <div style=""text-align: center; margin-left: 20px;"">
            <p style=""font-size: 24px; font-weight: bold;"">Event 2</p>
            <img src=""images/causal/hotel_scheme/hotel_scheme_5.png"" style=""width: 300px; height: auto;"">
          </div>
        </div>
        <p style=""text-align: center; margin-top: 20px;"">Did one event cause the other?</p>","0","3","5","true","hotel_scheme"
"","","","","","html-button-response","75","568299","0.0-75.0","","5897","
        <div style=""display: flex; justify-content: center; align-items: center;"">
          <div style=""text-align: center; margin-right: 20px;"">
            <p style=""font-size: 24px; font-weight: bold;"">Event 1</p>
            <img src=""images/causal/maintaining_a_car_semantic/maintaining_a_car_semantic_9.png"" style=""width: 300px; height: auto;"">
          </div>
          <div style=""text-align: center; margin-left: 20px;"">
            <p style=""font-size: 24px; font-weight: bold;"">Event 2</p>
            <img src=""images/causal/maintaining_a_car_semantic/maintaining_a_car_semantic_2.png"" style=""width: 300px; height: auto;"">
          </div>
        </div>
        <p style=""text-align: center; margin-top: 20px;"">Did one event cause the other?</p>","1","9","2","true","maintaining_a_car_semantic"
"","","","","","html-button-response","76","576587","0.0-76.0","","8287","
        <div style=""display: flex; justify-content: center; align-items: center;"">
          <div style=""text-align: center; margin-right: 20px;"">
            <p style=""font-size: 24px; font-weight: bold;"">Event 1</p>
            <img src=""images/causal/market_semantic/market_semantic_4.png"" style=""width: 300px; height: auto;"">
          </div>
          <div style=""text-align: center; margin-left: 20px;"">
            <p style=""font-size: 24px; font-weight: bold;"">Event 2</p>
            <img src=""images/causal/market_semantic/market_semantic_ten.png"" style=""width: 300px; height: auto;"">
          </div>
        </div>
        <p style=""text-align: center; margin-top: 20px;"">Did one event cause the other?</p>","0","4","10","true","market_semantic"
"","","","","","html-button-response","77","582127","0.0-77.0","","5539","
        <div style=""display: flex; justify-content: center; align-items: center;"">
          <div style=""text-align: center; margin-right: 20px;"">
            <p style=""font-size: 24px; font-weight: bold;"">Event 1</p>
            <img src=""images/causal/market_semantic/market_semantic_8.png"" style=""width: 300px; height: auto;"">
          </div>
          <div style=""text-align: center; margin-left: 20px;"">
            <p style=""font-size: 24px; font-weight: bold;"">Event 2</p>
            <img src=""images/causal/market_semantic/market_semantic_2.png"" style=""width: 300px; height: auto;"">
          </div>
        </div>
        <p style=""text-align: center; margin-top: 20px;"">Did one event cause the other?</p>","0","8","2","true","market_semantic"
"","","","","","html-button-response","78","588380","0.0-78.0","","6253","
        <div style=""display: flex; justify-content: center; align-items: center;"">
          <div style=""text-align: center; margin-right: 20px;"">
            <p style=""font-size: 24px; font-weight: bold;"">Event 1</p>
            <img src=""images/causal/package_causal/package_causal_3.png"" style=""width: 300px; height: auto;"">
          </div>
          <div style=""text-align: center; margin-left: 20px;"">
            <p style=""font-size: 24px; font-weight: bold;"">Event 2</p>
            <img src=""images/causal/package_causal/package_causal_5.png"" style=""width: 300px; height: auto;"">
          </div>
        </div>
        <p style=""text-align: center; margin-top: 20px;"">Did one event cause the other?</p>","0","3","5","true","package_causal"
"","","","","","html-button-response","79","594493","0.0-79.0","","6112","
        <div style=""display: flex; justify-content: center; align-items: center;"">
          <div style=""text-align: center; margin-right: 20px;"">
            <p style=""font-size: 24px; font-weight: bold;"">Event 1</p>
            <img src=""images/causal/interview_scheme/interview_scheme_ten.png"" style=""width: 300px; height: auto;"">
          </div>
          <div style=""text-align: center; margin-left: 20px;"">
            <p style=""font-size: 24px; font-weight: bold;"">Event 2</p>
            <img src=""images/causal/interview_scheme/interview_scheme_9.png"" style=""width: 300px; height: auto;"">
          </div>
        </div>
        <p style=""text-align: center; margin-top: 20px;"">Did one event cause the other?</p>","1","10","9","true","interview_scheme"
"","","","","","html-button-response","80","600785","0.0-80.0","","6291","
        <div style=""display: flex; justify-content: center; align-items: center;"">
          <div style=""text-align: center; margin-right: 20px;"">
            <p style=""font-size: 24px; font-weight: bold;"">Event 1</p>
            <img src=""images/causal/museum_causal/museum_causal_ten.png"" style=""width: 300px; height: auto;"">
          </div>
          <div style=""text-align: center; margin-left: 20px;"">
            <p style=""font-size: 24px; font-weight: bold;"">Event 2</p>
            <img src=""images/causal/museum_causal/museum_causal_3.png"" style=""width: 300px; height: auto;"">
          </div>
        </div>
        <p style=""text-align: center; margin-top: 20px;"">Did one event cause the other?</p>","1","10","3","true","museum_causal"
"","","","","","html-button-response","81","607033","0.0-81.0","","6247","
        <div style=""display: flex; justify-content: center; align-items: center;"">
          <div style=""text-align: center; margin-right: 20px;"">
            <p style=""font-size: 24px; font-weight: bold;"">Event 1</p>
            <img src=""images/causal/package_causal/package_causal_9.png"" style=""width: 300px; height: auto;"">
          </div>
          <div style=""text-align: center; margin-left: 20px;"">
            <p style=""font-size: 24px; font-weight: bold;"">Event 2</p>
            <img src=""images/causal/package_causal/package_causal_6.png"" style=""width: 300px; height: auto;"">
          </div>
        </div>
        <p style=""text-align: center; margin-top: 20px;"">Did one event cause the other?</p>","2","9","6","true","package_causal"
"","","","","","html-button-response","82","615163","0.0-82.0","","8129","
        <div style=""display: flex; justify-content: center; align-items: center;"">
          <div style=""text-align: center; margin-right: 20px;"">
            <p style=""font-size: 24px; font-weight: bold;"">Event 1</p>
            <img src=""images/causal/kitchen_operations_semantic/kitchen_operations_semantic_5.png"" style=""width: 300px; height: auto;"">
          </div>
          <div style=""text-align: center; margin-left: 20px;"">
            <p style=""font-size: 24px; font-weight: bold;"">Event 2</p>
            <img src=""images/causal/kitchen_operations_semantic/kitchen_operations_semantic_1.png"" style=""width: 300px; height: auto;"">
          </div>
        </div>
        <p style=""text-align: center; margin-top: 20px;"">Did one event cause the other?</p>","0","5","1","true","kitchen_operations_semantic"
"","","","","","html-button-response","83","623283","0.0-83.0","","8119","
        <div style=""display: flex; justify-content: center; align-items: center;"">
          <div style=""text-align: center; margin-right: 20px;"">
            <p style=""font-size: 24px; font-weight: bold;"">Event 1</p>
            <img src=""images/causal/museum_causal/museum_causal_ten.png"" style=""width: 300px; height: auto;"">
          </div>
          <div style=""text-align: center; margin-left: 20px;"">
            <p style=""font-size: 24px; font-weight: bold;"">Event 2</p>
            <img src=""images/causal/museum_causal/museum_causal_1.png"" style=""width: 300px; height: auto;"">
          </div>
        </div>
        <p style=""text-align: center; margin-top: 20px;"">Did one event cause the other?</p>","1","10","1","true","museum_causal"
"","","","","","html-button-response","84","629003","0.0-84.0","","5719","
        <div style=""display: flex; justify-content: center; align-items: center;"">
          <div style=""text-align: center; margin-right: 20px;"">
            <p style=""font-size: 24px; font-weight: bold;"">Event 1</p>
            <img src=""images/causal/package_causal/package_causal_3.png"" style=""width: 300px; height: auto;"">
          </div>
          <div style=""text-align: center; margin-left: 20px;"">
            <p style=""font-size: 24px; font-weight: bold;"">Event 2</p>
            <img src=""images/causal/package_causal/package_causal_6.png"" style=""width: 300px; height: auto;"">
          </div>
        </div>
        <p style=""text-align: center; margin-top: 20px;"">Did one event cause the other?</p>","0","3","6","true","package_causal"
"","","","","","html-button-response","85","634733","0.0-85.0","","5729","
        <div style=""display: flex; justify-content: center; align-items: center;"">
          <div style=""text-align: center; margin-right: 20px;"">
            <p style=""font-size: 24px; font-weight: bold;"">Event 1</p>
            <img src=""images/causal/package_causal/package_causal_9.png"" style=""width: 300px; height: auto;"">
          </div>
          <div style=""text-align: center; margin-left: 20px;"">
            <p style=""font-size: 24px; font-weight: bold;"">Event 2</p>
            <img src=""images/causal/package_causal/package_causal_7.png"" style=""width: 300px; height: auto;"">
          </div>
        </div>
        <p style=""text-align: center; margin-top: 20px;"">Did one event cause the other?</p>","2","9","7","true","package_causal"
"","","","","","html-button-response","86","640485","0.0-86.0","","5751","
        <div style=""display: flex; justify-content: center; align-items: center;"">
          <div style=""text-align: center; margin-right: 20px;"">
            <p style=""font-size: 24px; font-weight: bold;"">Event 1</p>
            <img src=""images/causal/physical_activity_semantic/physical_activity_semantic_2.png"" style=""width: 300px; height: auto;"">
          </div>
          <div style=""text-align: center; margin-left: 20px;"">
            <p style=""font-size: 24px; font-weight: bold;"">Event 2</p>
            <img src=""images/causal/physical_activity_semantic/physical_activity_semantic_7.png"" style=""width: 300px; height: auto;"">
          </div>
        </div>
        <p style=""text-align: center; margin-top: 20px;"">Did one event cause the other?</p>","2","2","7","true","physical_activity_semantic"
"","","","","","html-button-response","87","646039","0.0-87.0","","5553","
        <div style=""display: flex; justify-content: center; align-items: center;"">
          <div style=""text-align: center; margin-right: 20px;"">
            <p style=""font-size: 24px; font-weight: bold;"">Event 1</p>
            <img src=""images/causal/museum_causal/museum_causal_ten.png"" style=""width: 300px; height: auto;"">
          </div>
          <div style=""text-align: center; margin-left: 20px;"">
            <p style=""font-size: 24px; font-weight: bold;"">Event 2</p>
            <img src=""images/causal/museum_causal/museum_causal_5.png"" style=""width: 300px; height: auto;"">
          </div>
        </div>
        <p style=""text-align: center; margin-top: 20px;"">Did one event cause the other?</p>","1","10","5","true","museum_causal"
"","","","","","html-button-response","88","652501","0.0-88.0","","6461","
        <div style=""display: flex; justify-content: center; align-items: center;"">
          <div style=""text-align: center; margin-right: 20px;"">
            <p style=""font-size: 24px; font-weight: bold;"">Event 1</p>
            <img src=""images/causal/physical_activity_semantic/physical_activity_semantic_2.png"" style=""width: 300px; height: auto;"">
          </div>
          <div style=""text-align: center; margin-left: 20px;"">
            <p style=""font-size: 24px; font-weight: bold;"">Event 2</p>
            <img src=""images/causal/physical_activity_semantic/physical_activity_semantic_6.png"" style=""width: 300px; height: auto;"">
          </div>
        </div>
        <p style=""text-align: center; margin-top: 20px;"">Did one event cause the other?</p>","2","2","6","true","physical_activity_semantic"
"","","","","","html-button-response","89","658252","0.0-89.0","","5750","
        <div style=""display: flex; justify-content: center; align-items: center;"">
          <div style=""text-align: center; margin-right: 20px;"">
            <p style=""font-size: 24px; font-weight: bold;"">Event 1</p>
            <img src=""images/causal/hotel_scheme/hotel_scheme_2.png"" style=""width: 300px; height: auto;"">
          </div>
          <div style=""text-align: center; margin-left: 20px;"">
            <p style=""font-size: 24px; font-weight: bold;"">Event 2</p>
            <img src=""images/causal/hotel_scheme/hotel_scheme_9.png"" style=""width: 300px; height: auto;"">
          </div>
        </div>
        <p style=""text-align: center; margin-top: 20px;"">Did one event cause the other?</p>","0","2","9","true","hotel_scheme"
"","","","","","html-button-response","90","664449","0.0-90.0","","6196","
        <div style=""display: flex; justify-content: center; align-items: center;"">
          <div style=""text-align: center; margin-right: 20px;"">
            <p style=""font-size: 24px; font-weight: bold;"">Event 1</p>
            <img src=""images/causal/kitchen_operations_semantic/kitchen_operations_semantic_2.png"" style=""width: 300px; height: auto;"">
          </div>
          <div style=""text-align: center; margin-left: 20px;"">
            <p style=""font-size: 24px; font-weight: bold;"">Event 2</p>
            <img src=""images/causal/kitchen_operations_semantic/kitchen_operations_semantic_4.png"" style=""width: 300px; height: auto;"">
          </div>
        </div>
        <p style=""text-align: center; margin-top: 20px;"">Did one event cause the other?</p>","0","2","4","true","kitchen_operations_semantic"
"","","","","","html-button-response","91","678507","0.0-91.0","","14058","
        <div style=""display: flex; justify-content: center; align-items: center;"">
          <div style=""text-align: center; margin-right: 20px;"">
            <p style=""font-size: 24px; font-weight: bold;"">Event 1</p>
            <img src=""images/causal/kitchen_operations_semantic/kitchen_operations_semantic_2.png"" style=""width: 300px; height: auto;"">
          </div>
          <div style=""text-align: center; margin-left: 20px;"">
            <p style=""font-size: 24px; font-weight: bold;"">Event 2</p>
            <img src=""images/causal/kitchen_operations_semantic/kitchen_operations_semantic_9.png"" style=""width: 300px; height: auto;"">
          </div>
        </div>
        <p style=""text-align: center; margin-top: 20px;"">Did one event cause the other?</p>","0","2","9","true","kitchen_operations_semantic"
"","","","","","html-button-response","92","684807","0.0-92.0","","6299","
        <div style=""display: flex; justify-content: center; align-items: center;"">
          <div style=""text-align: center; margin-right: 20px;"">
            <p style=""font-size: 24px; font-weight: bold;"">Event 1</p>
            <img src=""images/causal/market_semantic/market_semantic_8.png"" style=""width: 300px; height: auto;"">
          </div>
          <div style=""text-align: center; margin-left: 20px;"">
            <p style=""font-size: 24px; font-weight: bold;"">Event 2</p>
            <img src=""images/causal/market_semantic/market_semantic_1.png"" style=""width: 300px; height: auto;"">
          </div>
        </div>
        <p style=""text-align: center; margin-top: 20px;"">Did one event cause the other?</p>","1","8","1","true","market_semantic"
"","","","","","html-button-response","93","690833","0.0-93.0","","6025","
        <div style=""display: flex; justify-content: center; align-items: center;"">
          <div style=""text-align: center; margin-right: 20px;"">
            <p style=""font-size: 24px; font-weight: bold;"">Event 1</p>
            <img src=""images/causal/hotel_scheme/hotel_scheme_3.png"" style=""width: 300px; height: auto;"">
          </div>
          <div style=""text-align: center; margin-left: 20px;"">
            <p style=""font-size: 24px; font-weight: bold;"">Event 2</p>
            <img src=""images/causal/hotel_scheme/hotel_scheme_1.png"" style=""width: 300px; height: auto;"">
          </div>
        </div>
        <p style=""text-align: center; margin-top: 20px;"">Did one event cause the other?</p>","1","3","1","true","hotel_scheme"
"","","","","","html-button-response","94","696958","0.0-94.0","","6125","
        <div style=""display: flex; justify-content: center; align-items: center;"">
          <div style=""text-align: center; margin-right: 20px;"">
            <p style=""font-size: 24px; font-weight: bold;"">Event 1</p>
            <img src=""images/causal/package_causal/package_causal_4.png"" style=""width: 300px; height: auto;"">
          </div>
          <div style=""text-align: center; margin-left: 20px;"">
            <p style=""font-size: 24px; font-weight: bold;"">Event 2</p>
            <img src=""images/causal/package_causal/package_causal_7.png"" style=""width: 300px; height: auto;"">
          </div>
        </div>
        <p style=""text-align: center; margin-top: 20px;"">Did one event cause the other?</p>","0","4","7","true","package_causal"
"","","","","","html-button-response","95","702835","0.0-95.0","","5876","
        <div style=""display: flex; justify-content: center; align-items: center;"">
          <div style=""text-align: center; margin-right: 20px;"">
            <p style=""font-size: 24px; font-weight: bold;"">Event 1</p>
            <img src=""images/causal/hotel_scheme/hotel_scheme_1.png"" style=""width: 300px; height: auto;"">
          </div>
          <div style=""text-align: center; margin-left: 20px;"">
            <p style=""font-size: 24px; font-weight: bold;"">Event 2</p>
            <img src=""images/causal/hotel_scheme/hotel_scheme_2.png"" style=""width: 300px; height: auto;"">
          </div>
        </div>
        <p style=""text-align: center; margin-top: 20px;"">Did one event cause the other?</p>","0","1","2","true","hotel_scheme"
"","","","","","html-button-response","96","710919","0.0-96.0","","8083","
        <div style=""display: flex; justify-content: center; align-items: center;"">
          <div style=""text-align: center; margin-right: 20px;"">
            <p style=""font-size: 24px; font-weight: bold;"">Event 1</p>
            <img src=""images/causal/kitchen_operations_semantic/kitchen_operations_semantic_8.png"" style=""width: 300px; height: auto;"">
          </div>
          <div style=""text-align: center; margin-left: 20px;"">
            <p style=""font-size: 24px; font-weight: bold;"">Event 2</p>
            <img src=""images/causal/kitchen_operations_semantic/kitchen_operations_semantic_6.png"" style=""width: 300px; height: auto;"">
          </div>
        </div>
        <p style=""text-align: center; margin-top: 20px;"">Did one event cause the other?</p>","2","8","6","true","kitchen_operations_semantic"
"","","","","","html-button-response","97","716630","0.0-97.0","","5711","
        <div style=""display: flex; justify-content: center; align-items: center;"">
          <div style=""text-align: center; margin-right: 20px;"">
            <p style=""font-size: 24px; font-weight: bold;"">Event 1</p>
            <img src=""images/causal/museum_causal/museum_causal_ten.png"" style=""width: 300px; height: auto;"">
          </div>
          <div style=""text-align: center; margin-left: 20px;"">
            <p style=""font-size: 24px; font-weight: bold;"">Event 2</p>
            <img src=""images/causal/museum_causal/museum_causal_7.png"" style=""width: 300px; height: auto;"">
          </div>
        </div>
        <p style=""text-align: center; margin-top: 20px;"">Did one event cause the other?</p>","0","10","7","true","museum_causal"
"","","","","","html-button-response","98","722373","0.0-98.0","","5742","
        <div style=""display: flex; justify-content: center; align-items: center;"">
          <div style=""text-align: center; margin-right: 20px;"">
            <p style=""font-size: 24px; font-weight: bold;"">Event 1</p>
            <img src=""images/causal/interview_scheme/interview_scheme_9.png"" style=""width: 300px; height: auto;"">
          </div>
          <div style=""text-align: center; margin-left: 20px;"">
            <p style=""font-size: 24px; font-weight: bold;"">Event 2</p>
            <img src=""images/causal/interview_scheme/interview_scheme_4.png"" style=""width: 300px; height: auto;"">
          </div>
        </div>
        <p style=""text-align: center; margin-top: 20px;"">Did one event cause the other?</p>","1","9","4","true","interview_scheme"
"","","","","","html-button-response","99","728512","0.0-99.0","","6138","
        <div style=""display: flex; justify-content: center; align-items: center;"">
          <div style=""text-align: center; margin-right: 20px;"">
            <p style=""font-size: 24px; font-weight: bold;"">Event 1</p>
            <img src=""images/causal/hotel_scheme/hotel_scheme_7.png"" style=""width: 300px; height: auto;"">
          </div>
          <div style=""text-align: center; margin-left: 20px;"">
            <p style=""font-size: 24px; font-weight: bold;"">Event 2</p>
            <img src=""images/causal/hotel_scheme/hotel_scheme_3.png"" style=""width: 300px; height: auto;"">
          </div>
        </div>
        <p style=""text-align: center; margin-top: 20px;"">Did one event cause the other?</p>","1","7","3","true","hotel_scheme"
"","","","","","html-button-response","100","736898","0.0-100.0","","8386","
        <div style=""display: flex; justify-content: center; align-items: center;"">
          <div style=""text-align: center; margin-right: 20px;"">
            <p style=""font-size: 24px; font-weight: bold;"">Event 1</p>
            <img src=""images/causal/museum_causal/museum_causal_8.png"" style=""width: 300px; height: auto;"">
          </div>
          <div style=""text-align: center; margin-left: 20px;"">
            <p style=""font-size: 24px; font-weight: bold;"">Event 2</p>
            <img src=""images/causal/museum_causal/museum_causal_2.png"" style=""width: 300px; height: auto;"">
          </div>
        </div>
        <p style=""text-align: center; margin-top: 20px;"">Did one event cause the other?</p>","0","8","2","true","museum_causal"
"","","","","","html-button-response","101","742411","0.0-101.0","","5511","
        <div style=""display: flex; justify-content: center; align-items: center;"">
          <div style=""text-align: center; margin-right: 20px;"">
            <p style=""font-size: 24px; font-weight: bold;"">Event 1</p>
            <img src=""images/causal/physical_activity_semantic/physical_activity_semantic_ten.png"" style=""width: 300px; height: auto;"">
          </div>
          <div style=""text-align: center; margin-left: 20px;"">
            <p style=""font-size: 24px; font-weight: bold;"">Event 2</p>
            <img src=""images/causal/physical_activity_semantic/physical_activity_semantic_2.png"" style=""width: 300px; height: auto;"">
          </div>
        </div>
        <p style=""text-align: center; margin-top: 20px;"">Did one event cause the other?</p>","2","10","2","true","physical_activity_semantic"
"","","","","","html-button-response","102","747937","0.0-102.0","","5525","
        <div style=""display: flex; justify-content: center; align-items: center;"">
          <div style=""text-align: center; margin-right: 20px;"">
            <p style=""font-size: 24px; font-weight: bold;"">Event 1</p>
            <img src=""images/causal/maintaining_a_car_semantic/maintaining_a_car_semantic_5.png"" style=""width: 300px; height: auto;"">
          </div>
          <div style=""text-align: center; margin-left: 20px;"">
            <p style=""font-size: 24px; font-weight: bold;"">Event 2</p>
            <img src=""images/causal/maintaining_a_car_semantic/maintaining_a_car_semantic_8.png"" style=""width: 300px; height: auto;"">
          </div>
        </div>
        <p style=""text-align: center; margin-top: 20px;"">Did one event cause the other?</p>","2","5","8","true","maintaining_a_car_semantic"
"","","","","","html-button-response","103","754909","0.0-103.0","","6971","
        <div style=""display: flex; justify-content: center; align-items: center;"">
          <div style=""text-align: center; margin-right: 20px;"">
            <p style=""font-size: 24px; font-weight: bold;"">Event 1</p>
            <img src=""images/causal/package_causal/package_causal_1.png"" style=""width: 300px; height: auto;"">
          </div>
          <div style=""text-align: center; margin-left: 20px;"">
            <p style=""font-size: 24px; font-weight: bold;"">Event 2</p>
            <img src=""images/causal/package_causal/package_causal_3.png"" style=""width: 300px; height: auto;"">
          </div>
        </div>
        <p style=""text-align: center; margin-top: 20px;"">Did one event cause the other?</p>","0","1","3","true","package_causal"
"","","","","","html-button-response","104","761158","0.0-104.0","","6248","
        <div style=""display: flex; justify-content: center; align-items: center;"">
          <div style=""text-align: center; margin-right: 20px;"">
            <p style=""font-size: 24px; font-weight: bold;"">Event 1</p>
            <img src=""images/causal/package_causal/package_causal_4.png"" style=""width: 300px; height: auto;"">
          </div>
          <div style=""text-align: center; margin-left: 20px;"">
            <p style=""font-size: 24px; font-weight: bold;"">Event 2</p>
            <img src=""images/causal/package_causal/package_causal_6.png"" style=""width: 300px; height: auto;"">
          </div>
        </div>
        <p style=""text-align: center; margin-top: 20px;"">Did one event cause the other?</p>","0","4","6","true","package_causal"
"","","","","","html-button-response","105","766766","0.0-105.0","","5608","
        <div style=""display: flex; justify-content: center; align-items: center;"">
          <div style=""text-align: center; margin-right: 20px;"">
            <p style=""font-size: 24px; font-weight: bold;"">Event 1</p>
            <img src=""images/causal/hotel_scheme/hotel_scheme_6.png"" style=""width: 300px; height: auto;"">
          </div>
          <div style=""text-align: center; margin-left: 20px;"">
            <p style=""font-size: 24px; font-weight: bold;"">Event 2</p>
            <img src=""images/causal/hotel_scheme/hotel_scheme_7.png"" style=""width: 300px; height: auto;"">
          </div>
        </div>
        <p style=""text-align: center; margin-top: 20px;"">Did one event cause the other?</p>","2","6","7","true","hotel_scheme"
"","","","","","html-button-response","106","775469","0.0-106.0","","8701","
        <div style=""display: flex; justify-content: center; align-items: center;"">
          <div style=""text-align: center; margin-right: 20px;"">
            <p style=""font-size: 24px; font-weight: bold;"">Event 1</p>
            <img src=""images/causal/interview_scheme/interview_scheme_6.png"" style=""width: 300px; height: auto;"">
          </div>
          <div style=""text-align: center; margin-left: 20px;"">
            <p style=""font-size: 24px; font-weight: bold;"">Event 2</p>
            <img src=""images/causal/interview_scheme/interview_scheme_3.png"" style=""width: 300px; height: auto;"">
          </div>
        </div>
        <p style=""text-align: center; margin-top: 20px;"">Did one event cause the other?</p>","1","6","3","true","interview_scheme"
"","","","","","html-button-response","107","781782","0.0-107.0","","6313","
        <div style=""display: flex; justify-content: center; align-items: center;"">
          <div style=""text-align: center; margin-right: 20px;"">
            <p style=""font-size: 24px; font-weight: bold;"">Event 1</p>
            <img src=""images/causal/museum_causal/museum_causal_5.png"" style=""width: 300px; height: auto;"">
          </div>
          <div style=""text-align: center; margin-left: 20px;"">
            <p style=""font-size: 24px; font-weight: bold;"">Event 2</p>
            <img src=""images/causal/museum_causal/museum_causal_4.png"" style=""width: 300px; height: auto;"">
          </div>
        </div>
        <p style=""text-align: center; margin-top: 20px;"">Did one event cause the other?</p>","2","5","4","true","museum_causal"
"","","","","","html-button-response","108","787440","0.0-108.0","","5657","
        <div style=""display: flex; justify-content: center; align-items: center;"">
          <div style=""text-align: center; margin-right: 20px;"">
            <p style=""font-size: 24px; font-weight: bold;"">Event 1</p>
            <img src=""images/causal/museum_causal/museum_causal_8.png"" style=""width: 300px; height: auto;"">
          </div>
          <div style=""text-align: center; margin-left: 20px;"">
            <p style=""font-size: 24px; font-weight: bold;"">Event 2</p>
            <img src=""images/causal/museum_causal/museum_causal_6.png"" style=""width: 300px; height: auto;"">
          </div>
        </div>
        <p style=""text-align: center; margin-top: 20px;"">Did one event cause the other?</p>","1","8","6","true","museum_causal"
"","","","","","html-button-response","109","796300","0.0-109.0","","8860","
        <div style=""display: flex; justify-content: center; align-items: center;"">
          <div style=""text-align: center; margin-right: 20px;"">
            <p style=""font-size: 24px; font-weight: bold;"">Event 1</p>
            <img src=""images/causal/market_semantic/market_semantic_4.png"" style=""width: 300px; height: auto;"">
          </div>
          <div style=""text-align: center; margin-left: 20px;"">
            <p style=""font-size: 24px; font-weight: bold;"">Event 2</p>
            <img src=""images/causal/market_semantic/market_semantic_1.png"" style=""width: 300px; height: auto;"">
          </div>
        </div>
        <p style=""text-align: center; margin-top: 20px;"">Did one event cause the other?</p>","1","4","1","true","market_semantic"
"","","","","","html-button-response","110","813264","0.0-110.0","","16963","
        <div style=""display: flex; justify-content: center; align-items: center;"">
          <div style=""text-align: center; margin-right: 20px;"">
            <p style=""font-size: 24px; font-weight: bold;"">Event 1</p>
            <img src=""images/causal/interview_scheme/interview_scheme_4.png"" style=""width: 300px; height: auto;"">
          </div>
          <div style=""text-align: center; margin-left: 20px;"">
            <p style=""font-size: 24px; font-weight: bold;"">Event 2</p>
            <img src=""images/causal/interview_scheme/interview_scheme_3.png"" style=""width: 300px; height: auto;"">
          </div>
        </div>
        <p style=""text-align: center; margin-top: 20px;"">Did one event cause the other?</p>","1","4","3","true","interview_scheme"
"","","","","","html-button-response","111","819588","0.0-111.0","","6323","
        <div style=""display: flex; justify-content: center; align-items: center;"">
          <div style=""text-align: center; margin-right: 20px;"">
            <p style=""font-size: 24px; font-weight: bold;"">Event 1</p>
            <img src=""images/causal/hotel_scheme/hotel_scheme_3.png"" style=""width: 300px; height: auto;"">
          </div>
          <div style=""text-align: center; margin-left: 20px;"">
            <p style=""font-size: 24px; font-weight: bold;"">Event 2</p>
            <img src=""images/causal/hotel_scheme/hotel_scheme_2.png"" style=""width: 300px; height: auto;"">
          </div>
        </div>
        <p style=""text-align: center; margin-top: 20px;"">Did one event cause the other?</p>","1","3","2","true","hotel_scheme"
"","","","","","html-button-response","112","825302","0.0-112.0","","5713","
        <div style=""display: flex; justify-content: center; align-items: center;"">
          <div style=""text-align: center; margin-right: 20px;"">
            <p style=""font-size: 24px; font-weight: bold;"">Event 1</p>
            <img src=""images/causal/museum_causal/museum_causal_7.png"" style=""width: 300px; height: auto;"">
          </div>
          <div style=""text-align: center; margin-left: 20px;"">
            <p style=""font-size: 24px; font-weight: bold;"">Event 2</p>
            <img src=""images/causal/museum_causal/museum_causal_3.png"" style=""width: 300px; height: auto;"">
          </div>
        </div>
        <p style=""text-align: center; margin-top: 20px;"">Did one event cause the other?</p>","1","7","3","true","museum_causal"
"","","","","","html-button-response","113","830918","0.0-113.0","","5615","
        <div style=""display: flex; justify-content: center; align-items: center;"">
          <div style=""text-align: center; margin-right: 20px;"">
            <p style=""font-size: 24px; font-weight: bold;"">Event 1</p>
            <img src=""images/causal/kitchen_operations_semantic/kitchen_operations_semantic_5.png"" style=""width: 300px; height: auto;"">
          </div>
          <div style=""text-align: center; margin-left: 20px;"">
            <p style=""font-size: 24px; font-weight: bold;"">Event 2</p>
            <img src=""images/causal/kitchen_operations_semantic/kitchen_operations_semantic_ten.png"" style=""width: 300px; height: auto;"">
          </div>
        </div>
        <p style=""text-align: center; margin-top: 20px;"">Did one event cause the other?</p>","2","5","10","true","kitchen_operations_semantic"
"","","","","","html-button-response","114","836600","0.0-114.0","","5682","
        <div style=""display: flex; justify-content: center; align-items: center;"">
          <div style=""text-align: center; margin-right: 20px;"">
            <p style=""font-size: 24px; font-weight: bold;"">Event 1</p>
            <img src=""images/causal/physical_activity_semantic/physical_activity_semantic_ten.png"" style=""width: 300px; height: auto;"">
          </div>
          <div style=""text-align: center; margin-left: 20px;"">
            <p style=""font-size: 24px; font-weight: bold;"">Event 2</p>
            <img src=""images/causal/physical_activity_semantic/physical_activity_semantic_4.png"" style=""width: 300px; height: auto;"">
          </div>
        </div>
        <p style=""text-align: center; margin-top: 20px;"">Did one event cause the other?</p>","2","10","4","true","physical_activity_semantic"
"","","","","","html-button-response","115","842190","0.0-115.0","","5589","
        <div style=""display: flex; justify-content: center; align-items: center;"">
          <div style=""text-align: center; margin-right: 20px;"">
            <p style=""font-size: 24px; font-weight: bold;"">Event 1</p>
            <img src=""images/causal/kitchen_operations_semantic/kitchen_operations_semantic_ten.png"" style=""width: 300px; height: auto;"">
          </div>
          <div style=""text-align: center; margin-left: 20px;"">
            <p style=""font-size: 24px; font-weight: bold;"">Event 2</p>
            <img src=""images/causal/kitchen_operations_semantic/kitchen_operations_semantic_8.png"" style=""width: 300px; height: auto;"">
          </div>
        </div>
        <p style=""text-align: center; margin-top: 20px;"">Did one event cause the other?</p>","2","10","8","true","kitchen_operations_semantic"
"","","","","","html-button-response","116","848162","0.0-116.0","","5971","
        <div style=""display: flex; justify-content: center; align-items: center;"">
          <div style=""text-align: center; margin-right: 20px;"">
            <p style=""font-size: 24px; font-weight: bold;"">Event 1</p>
            <img src=""images/causal/kitchen_operations_semantic/kitchen_operations_semantic_4.png"" style=""width: 300px; height: auto;"">
          </div>
          <div style=""text-align: center; margin-left: 20px;"">
            <p style=""font-size: 24px; font-weight: bold;"">Event 2</p>
            <img src=""images/causal/kitchen_operations_semantic/kitchen_operations_semantic_3.png"" style=""width: 300px; height: auto;"">
          </div>
        </div>
        <p style=""text-align: center; margin-top: 20px;"">Did one event cause the other?</p>","1","4","3","true","kitchen_operations_semantic"
"","","","","","html-button-response","117","855236","0.0-117.0","","7073","
        <div style=""display: flex; justify-content: center; align-items: center;"">
          <div style=""text-align: center; margin-right: 20px;"">
            <p style=""font-size: 24px; font-weight: bold;"">Event 1</p>
            <img src=""images/causal/kitchen_operations_semantic/kitchen_operations_semantic_2.png"" style=""width: 300px; height: auto;"">
          </div>
